,time,acc_x,acc_y,acc_z,gyro_x,gyro_y,gyro_z
0,2025-03-14 17:00:02.660000,-0.3671875,0.7895508,0.47436523,0.5493164,1.4648436,-0.5493164
1,2025-03-14 17:00:02.670000,-0.359375,0.78686523,0.47509766,0.42724606,1.6479491,-0.3662109
2,2025-03-14 17:00:02.680000,-0.36035156,0.78125,0.4741211,0.18310545,1.8310546,-0.48828122
3,2025-03-14 17:00:02.690000,-0.3630371,0.7763672,0.47094727,0.122070305,1.5258788,-1.0375977
4,2025-03-14 17:00:02.700000,-0.36767578,0.7746582,0.47338867,0.18310545,0.3662109,-1.7700194
5,2025-03-14 17:00:02.710000,-0.37060547,0.7709961,0.46972656,0.30517578,-1.0986328,-2.4414062
6,2025-03-14 17:00:02.720000,-0.37353516,0.767334,0.46533203,0.61035156,-2.1362305,-3.173828
7,2025-03-14 17:00:02.730000,-0.3798828,0.7709961,0.46362305,0.9155273,-2.380371,-3.5400388
8,2025-03-14 17:00:02.740000,-0.39135742,0.7739258,0.46704102,1.159668,-1.7089843,-3.6621091
9,2025-03-14 17:00:02.750000,-0.4050293,0.77441406,0.47045898,1.159668,-0.793457,-3.2958982
10,2025-03-14 17:00:02.760000,-0.4194336,0.7717285,0.47094727,1.0375977,-0.061035153,-2.9296873
11,2025-03-14 17:00:02.770000,-0.42163086,0.7763672,0.47436523,1.2207031,0.30517578,-2.319336
12,2025-03-14 17:00:02.780000,-0.42285156,0.7788086,0.47851562,1.2817382,0.67138666,-1.3427733
13,2025-03-14 17:00:02.790000,-0.41479492,0.7783203,0.4814453,0.9155273,0.97656244,-0.30517578
14,2025-03-14 17:00:02.800000,-0.39770508,0.779541,0.48266602,0.7324218,1.586914,0.5493164
15,2025-03-14 17:00:02.810000,-0.38476562,0.7849121,0.48168945,0.7324218,2.2583008,1.0375977
16,2025-03-14 17:00:02.820000,-0.37646484,0.7915039,0.47485352,0.8544921,2.9907224,1.159668
17,2025-03-14 17:00:02.830000,-0.37036133,0.7878418,0.47045898,0.48828122,2.9907224,1.4038085
18,2025-03-14 17:00:02.840000,-0.37280273,0.7783203,0.46875,-0.122070305,2.4414062,1.6479491
19,2025-03-14 17:00:02.850000,-0.37426758,0.77197266,0.46435547,-0.5493164,1.5258788,1.586914
20,2025-03-14 17:00:02.860000,-0.37695312,0.7753906,0.45776367,-0.48828122,0.5493164,0.97656244
21,2025-03-14 17:00:02.870000,-0.38110352,0.7729492,0.4489746,-0.30517578,-0.122070305,0.3662109
22,2025-03-14 17:00:02.880000,-0.39208984,0.77319336,0.4411621,-0.42724606,-1.0986328,0.061035153
23,2025-03-14 17:00:02.890000,-0.3942871,0.77441406,0.43481445,-0.42724606,-2.319336,-0.42724606
24,2025-03-14 17:00:02.900000,-0.3955078,0.7770996,0.43408203,-0.5493164,-3.0517576,-0.7324218
25,2025-03-14 17:00:02.910000,-0.39990234,0.7766113,0.44018555,-0.7324218,-3.173828,-0.61035156
26,2025-03-14 17:00:02.920000,-0.3996582,0.77783203,0.45458984,-0.793457,-2.9907224,-0.3662109
27,2025-03-14 17:00:02.930000,-0.39672852,0.78149414,0.46899414,-0.61035156,-3.0517576,-0.18310545
28,2025-03-14 17:00:02.940000,-0.38378906,0.78637695,0.48242188,-0.61035156,-3.0517576,0.122070305
29,2025-03-14 17:00:02.950000,-0.375,0.7824707,0.4909668,-0.5493164,-2.4414062,0.30517578
30,2025-03-14 17:00:02.960000,-0.36987305,0.7819824,0.5007324,-0.42724606,-1.2817382,0.3662109
31,2025-03-14 17:00:02.970000,-0.3618164,0.7783203,0.5041504,-0.30517578,0.24414061,0.3662109
32,2025-03-14 17:00:02.980000,-0.36376953,0.782959,0.50268555,-0.24414061,1.9531249,0.061035153
33,2025-03-14 17:00:02.990000,-0.37475586,0.7817383,0.49243164,-0.5493164,3.0517576,-0.122070305
34,2025-03-14 17:00:03.000000,-0.38500977,0.77978516,0.47998047,-0.9155273,2.9907224,0.122070305
35,2025-03-14 17:00:03.010000,-0.39819336,0.78271484,0.46655273,-1.0375977,2.0751953,0.3662109
36,2025-03-14 17:00:03.020000,-0.39941406,0.7819824,0.45117188,-1.0986328,0.061035153,0.48828122
37,2025-03-14 17:00:03.030000,-0.38916016,0.77905273,0.4404297,-1.0986328,-1.7700194,0.67138666
38,2025-03-14 17:00:03.040000,-0.3869629,0.779541,0.43310547,-1.159668,-2.6245115,0.67138666
39,2025-03-14 17:00:03.050000,-0.38671875,0.7844238,0.43701172,-1.2817382,-2.9296873,0.42724606
40,2025-03-14 17:00:03.060000,-0.38305664,0.7844238,0.44580078,-1.6479491,-3.601074,0.3662109
41,2025-03-14 17:00:03.070000,-0.38134766,0.7788086,0.4506836,-1.8310546,-4.760742,0.3662109
42,2025-03-14 17:00:03.080000,-0.37695312,0.78344727,0.4597168,-2.0141602,-5.981445,0.30517578
43,2025-03-14 17:00:03.090000,-0.37304688,0.7861328,0.46728516,-2.4414062,-6.774902,0.18310545
44,2025-03-14 17:00:03.100000,-0.36816406,0.78344727,0.4765625,-2.6855466,-7.141113,0.3662109
45,2025-03-14 17:00:03.110000,-0.36621094,0.78100586,0.48901367,-2.807617,-7.0190425,0.48828122
46,2025-03-14 17:00:03.120000,-0.36889648,0.7751465,0.50219727,-2.807617,-5.981445,0.24414061
47,2025-03-14 17:00:03.129999,-0.37451172,0.77490234,0.51586914,-2.380371,-4.8217773,-0.061035153
48,2025-03-14 17:00:03.139999,-0.37548828,0.77783203,0.51831055,-1.6479491,-3.5400388,-0.18310545
49,2025-03-14 17:00:03.149999,-0.37768555,0.7780762,0.5168457,-1.159668,-2.2583008,-0.24414061
50,2025-03-14 17:00:03.159999,-0.38110352,0.7766113,0.5102539,-0.48828122,-0.97656244,-0.122070305
51,2025-03-14 17:00:03.170000,-0.38305664,0.77197266,0.5031738,0.061035153,0.122070305,0.061035153
52,2025-03-14 17:00:03.180000,-0.3864746,0.77197266,0.4970703,0.7324218,0.7324218,0.122070305
53,2025-03-14 17:00:03.190000,-0.39013672,0.7753906,0.47875977,1.3427733,0.48828122,-0.18310545
54,2025-03-14 17:00:03.200000,-0.38378906,0.78149414,0.46166992,1.4648436,-0.061035153,-0.061035153
55,2025-03-14 17:00:03.210000,-0.38061523,0.77783203,0.4572754,0.97656244,-0.3662109,0.18310545
56,2025-03-14 17:00:03.220000,-0.37939453,0.7751465,0.46166992,0.7324218,-0.42724606,0.061035153
57,2025-03-14 17:00:03.230000,-0.38452148,0.7727051,0.46362305,0.7324218,-0.793457,-0.18310545
58,2025-03-14 17:00:03.240000,-0.38891602,0.7692871,0.4650879,0.9155273,-1.2817382,-0.3662109
59,2025-03-14 17:00:03.250000,-0.39111328,0.77075195,0.46606445,1.0375977,-1.8310546,-0.5493164
60,2025-03-14 17:00:03.260000,-0.39160156,0.7751465,0.4716797,0.8544921,-2.380371,-0.5493164
61,2025-03-14 17:00:03.270000,-0.39038086,0.77075195,0.4794922,0.67138666,-2.319336,0.0
62,2025-03-14 17:00:03.280000,-0.39379883,0.77075195,0.49023438,0.9155273,-1.3427733,0.30517578
63,2025-03-14 17:00:03.290000,-0.40014648,0.7739258,0.49536133,1.586914,-0.3662109,0.48828122
64,2025-03-14 17:00:03.300000,-0.39453125,0.7741699,0.50268555,2.319336,0.42724606,0.793457
65,2025-03-14 17:00:03.310000,-0.3786621,0.78100586,0.5053711,2.868652,1.2817382,0.793457
66,2025-03-14 17:00:03.320000,-0.36279297,0.7873535,0.5048828,3.3569334,2.2583008,0.793457
67,2025-03-14 17:00:03.330000,-0.3491211,0.7919922,0.5007324,3.5400388,3.6621091,0.67138666
68,2025-03-14 17:00:03.340000,-0.34472656,0.7944336,0.4987793,3.3569334,5.187988,0.42724606
69,2025-03-14 17:00:03.350000,-0.3474121,0.7939453,0.4975586,3.3569334,6.2255855,0.30517578
70,2025-03-14 17:00:03.360000,-0.35180664,0.7961426,0.49389648,3.5400388,6.469726,-0.18310545
71,2025-03-14 17:00:03.370000,-0.35717773,0.79418945,0.47631836,3.5400388,5.7983394,-0.7324218
72,2025-03-14 17:00:03.380000,-0.3630371,0.7873535,0.46435547,3.1127927,4.638672,-0.9155273
73,2025-03-14 17:00:03.390000,-0.37304688,0.78344727,0.46069336,2.807617,3.7231443,-1.4038085
74,2025-03-14 17:00:03.400000,-0.38012695,0.7800293,0.45263672,2.868652,3.6621091,-1.8310546
75,2025-03-14 17:00:03.410000,-0.39282227,0.7758789,0.44848633,2.807617,3.601074,-1.9531249
76,2025-03-14 17:00:03.420000,-0.39672852,0.7702637,0.44995117,2.807617,3.234863,-2.0141602
77,2025-03-14 17:00:03.430000,-0.3930664,0.7709961,0.45458984,3.1127927,3.173828,-2.1972656
78,2025-03-14 17:00:03.440000,-0.39794922,0.7746582,0.4633789,3.2958982,4.1503906,-2.2583008
79,2025-03-14 17:00:03.450000,-0.40014648,0.7763672,0.47045898,3.5400388,5.615234,-2.1972656
80,2025-03-14 17:00:03.460000,-0.39990234,0.77490234,0.47973633,4.0283203,7.202148,-1.9531249
81,2025-03-14 17:00:03.470000,-0.3942871,0.7734375,0.49072266,4.5776367,8.666992,-1.2207031
82,2025-03-14 17:00:03.480000,-0.3935547,0.78149414,0.48706055,5.187988,10.559081,-1.4038085
83,2025-03-14 17:00:03.490000,-0.39868164,0.7861328,0.4807129,5.5541987,12.451171,-1.4038085
84,2025-03-14 17:00:03.500000,-0.3894043,0.78637695,0.47460938,5.3710933,13.671874,-1.0375977
85,2025-03-14 17:00:03.510000,-0.38354492,0.7885742,0.47192383,5.310058,14.587401,-0.8544921
86,2025-03-14 17:00:03.520000,-0.37841797,0.7883301,0.47338867,5.1269526,15.319823,-0.97656244
87,2025-03-14 17:00:03.530000,-0.37597656,0.7873535,0.47607422,5.187988,16.479492,-1.2817382
88,2025-03-14 17:00:03.540000,-0.38134766,0.7873535,0.47265625,5.5541987,17.333984,-1.586914
89,2025-03-14 17:00:03.550000,-0.37817383,0.79125977,0.47314453,6.04248,17.51709,-2.0141602
90,2025-03-14 17:00:03.560000,-0.3671875,0.795166,0.47558594,6.469726,17.456055,-2.5634763
91,2025-03-14 17:00:03.570000,-0.3642578,0.7915039,0.46704102,6.7138667,18.493652,-3.234863
92,2025-03-14 17:00:03.580000,-0.37670898,0.78881836,0.45898438,6.896972,19.714355,-4.1503906
93,2025-03-14 17:00:03.590000,-0.38964844,0.79125977,0.4428711,6.835937,20.62988,-4.699707
94,2025-03-14 17:00:03.600000,-0.40722656,0.78930664,0.43066406,6.2866206,20.446775,-4.8828125
95,2025-03-14 17:00:03.610000,-0.42504883,0.782959,0.42407227,6.04248,19.042969,-4.760742
96,2025-03-14 17:00:03.620000,-0.43798828,0.7739258,0.41577148,5.9204097,16.784668,-4.272461
97,2025-03-14 17:00:03.630000,-0.4477539,0.7697754,0.41088867,6.1645503,14.404296,-4.0283203
98,2025-03-14 17:00:03.640000,-0.45239258,0.7709961,0.41552734,6.6528316,12.878417,-3.9062498
99,2025-03-14 17:00:03.650000,-0.44360352,0.7702637,0.41186523,6.9580073,12.390136,-3.6621091
100,2025-03-14 17:00:03.660000,-0.43725586,0.7702637,0.4194336,7.263183,13.0615225,-3.173828
101,2025-03-14 17:00:03.670000,-0.4345703,0.7753906,0.42578125,7.8124995,15.0146475,-3.0517576
102,2025-03-14 17:00:03.680000,-0.4333496,0.78100586,0.42993164,8.361816,17.51709,-3.173828
103,2025-03-14 17:00:03.690000,-0.4284668,0.7817383,0.43774414,8.605957,19.958496,-2.9907224
104,2025-03-14 17:00:03.700000,-0.42944336,0.7775879,0.4416504,8.850098,21.91162,-3.173828
105,2025-03-14 17:00:03.710000,-0.4255371,0.7775879,0.4416504,9.277344,23.010252,-3.3569334
106,2025-03-14 17:00:03.720000,-0.42578125,0.7858887,0.43725586,9.58252,23.376463,-3.5400388
107,2025-03-14 17:00:03.730000,-0.4345703,0.7939453,0.43041992,10.009766,22.827147,-3.7841794
108,2025-03-14 17:00:03.740000,-0.43481445,0.79833984,0.41674805,10.498046,21.423338,-4.0283203
109,2025-03-14 17:00:03.750000,-0.43945312,0.79785156,0.40185547,10.498046,19.470215,-3.7231443
110,2025-03-14 17:00:03.760000,-0.4416504,0.80029297,0.39282227,10.19287,17.150879,-3.4179685
111,2025-03-14 17:00:03.770000,-0.43408203,0.79907227,0.3762207,9.82666,15.0146475,-3.1127927
112,2025-03-14 17:00:03.780000,-0.43115234,0.798584,0.35961914,9.399414,13.732909,-3.0517576
113,2025-03-14 17:00:03.790000,-0.43408203,0.7993164,0.35205078,8.605957,13.366698,-2.6855466
114,2025-03-14 17:00:03.800000,-0.43920898,0.7976074,0.3486328,7.93457,13.244628,-2.6245115
115,2025-03-14 17:00:03.810000,-0.44091797,0.7993164,0.3503418,7.629394,12.573241,-2.868652
116,2025-03-14 17:00:03.820000,-0.44335938,0.79711914,0.34228516,7.3242183,11.291503,-2.807617
117,2025-03-14 17:00:03.830000,-0.4453125,0.7919922,0.34057617,7.0190425,9.94873,-2.6855466
118,2025-03-14 17:00:03.840000,-0.44799805,0.7895508,0.3449707,6.7138667,9.094238,-2.5634763
119,2025-03-14 17:00:03.850000,-0.45263672,0.78881836,0.3503418,6.2255855,8.178711,-2.6245115
120,2025-03-14 17:00:03.860000,-0.46118164,0.7927246,0.35253906,6.04248,6.774902,-2.868652
121,2025-03-14 17:00:03.870000,-0.46606445,0.79907227,0.3544922,5.7983394,5.187988,-2.868652
122,2025-03-14 17:00:03.879999,-0.46313477,0.8010254,0.3557129,5.310058,3.8452146,-2.7465818
123,2025-03-14 17:00:03.889999,-0.46606445,0.7993164,0.3630371,4.638672,2.9907224,-2.319336
124,2025-03-14 17:00:03.899999,-0.46557617,0.79467773,0.359375,4.0283203,2.5634763,-1.7089843
125,2025-03-14 17:00:03.909999,-0.47045898,0.79711914,0.3527832,3.601074,1.7089843,-1.4038085
126,2025-03-14 17:00:03.919999,-0.4675293,0.79541016,0.35668945,3.234863,0.793457,-0.7324218
127,2025-03-14 17:00:03.929999,-0.4663086,0.79248047,0.36010742,2.9296873,0.18310545,-0.122070305
128,2025-03-14 17:00:03.939999,-0.46240234,0.7885742,0.36108398,2.9296873,0.0,0.24414061
129,2025-03-14 17:00:03.949999,-0.46020508,0.79296875,0.35546875,3.2958982,0.122070305,0.24414061
130,2025-03-14 17:00:03.960000,-0.4580078,0.79907227,0.35083008,3.173828,0.3662109,0.30517578
131,2025-03-14 17:00:03.970000,-0.45263672,0.7980957,0.34985352,2.6245115,0.8544921,0.48828122
132,2025-03-14 17:00:03.980000,-0.45336914,0.7980957,0.34838867,2.1362305,1.3427733,0.61035156
133,2025-03-14 17:00:03.990000,-0.4572754,0.79711914,0.35131836,1.6479491,1.5258788,0.7324218
134,2025-03-14 17:00:04.000000,-0.45825195,0.79418945,0.35131836,1.5258788,1.0375977,0.8544921
135,2025-03-14 17:00:04.010000,-0.45825195,0.79541016,0.3515625,1.3427733,0.0,0.8544921
136,2025-03-14 17:00:04.020000,-0.45532227,0.796875,0.35742188,0.97656244,-0.9155273,0.7324218
137,2025-03-14 17:00:04.030000,-0.45166016,0.796875,0.35961914,0.793457,-1.3427733,0.5493164
138,2025-03-14 17:00:04.040000,-0.45117188,0.8015137,0.35766602,0.97656244,-1.3427733,0.48828122
139,2025-03-14 17:00:04.050000,-0.44995117,0.80444336,0.36376953,0.793457,-1.2207031,0.48828122
140,2025-03-14 17:00:04.060000,-0.45166016,0.79785156,0.3630371,0.3662109,-1.0375977,0.67138666
141,2025-03-14 17:00:04.070000,-0.45922852,0.79345703,0.36083984,0.30517578,-0.67138666,0.793457
142,2025-03-14 17:00:04.080000,-0.4645996,0.79711914,0.36108398,0.42724606,-0.5493164,0.793457
143,2025-03-14 17:00:04.090000,-0.46313477,0.79711914,0.35986328,0.3662109,-0.61035156,1.0986328
144,2025-03-14 17:00:04.100000,-0.45751953,0.79711914,0.35913086,0.30517578,-0.24414061,1.4648436
145,2025-03-14 17:00:04.110000,-0.45825195,0.7944336,0.35717773,0.30517578,-0.061035153,1.586914
146,2025-03-14 17:00:04.120000,-0.46044922,0.79418945,0.35961914,0.24414061,-0.18310545,1.5258788
147,2025-03-14 17:00:04.129999,-0.46020508,0.79907227,0.36621094,0.122070305,-0.18310545,1.7089843
148,2025-03-14 17:00:04.139999,-0.45654297,0.7993164,0.37158203,0.122070305,0.30517578,1.8920897
149,2025-03-14 17:00:04.149999,-0.45043945,0.8000488,0.36743164,0.18310545,0.67138666,2.0751953
150,2025-03-14 17:00:04.159999,-0.44189453,0.79907227,0.36572266,0.24414061,0.67138666,2.380371
151,2025-03-14 17:00:04.170000,-0.44604492,0.79541016,0.36572266,0.30517578,0.30517578,2.6245115
152,2025-03-14 17:00:04.180000,-0.45751953,0.79663086,0.3701172,0.61035156,-0.30517578,2.319336
153,2025-03-14 17:00:04.190000,-0.4597168,0.7988281,0.37841797,1.159668,-1.0986328,2.1972656
154,2025-03-14 17:00:04.200000,-0.45336914,0.79956055,0.3815918,1.7089843,-1.7089843,2.5024414
155,2025-03-14 17:00:04.210000,-0.44360352,0.80126953,0.37963867,2.0751953,-1.4038085,2.380371
156,2025-03-14 17:00:04.220000,-0.4321289,0.8039551,0.37963867,1.9531249,-0.24414061,2.0141602
157,2025-03-14 17:00:04.230000,-0.42773438,0.80566406,0.3762207,1.7089843,1.2817382,1.5258788
158,2025-03-14 17:00:04.240000,-0.42871094,0.8063965,0.37524414,1.6479491,2.6245115,1.159668
159,2025-03-14 17:00:04.250000,-0.4333496,0.80737305,0.375,1.7089843,3.3569334,1.0986328
160,2025-03-14 17:00:04.250000,-0.43530273,0.8022461,0.37695312,1.8920897,3.5400388,0.8544921
161,2025-03-14 17:00:04.260000,-0.43164062,0.79663086,0.38085938,2.380371,3.7841794,0.5493164
162,2025-03-14 17:00:04.270000,-0.43896484,0.79174805,0.3779297,2.7465818,4.211426,0.24414061
163,2025-03-14 17:00:04.280000,-0.4453125,0.796875,0.36914062,3.1127927,4.638672,-0.42724606
164,2025-03-14 17:00:04.290000,-0.44506836,0.8063965,0.36645508,3.234863,4.8828125,-0.97656244
165,2025-03-14 17:00:04.300000,-0.4440918,0.8076172,0.36328125,3.173828,5.5541987,-0.97656244
166,2025-03-14 17:00:04.310000,-0.45141602,0.80493164,0.35913086,3.0517576,6.1645503,-0.793457
167,2025-03-14 17:00:04.320000,-0.45532227,0.80126953,0.35839844,2.9296873,6.2255855,-0.67138666
168,2025-03-14 17:00:04.330000,-0.45458984,0.798584,0.3581543,3.1127927,6.103515,-0.3662109
169,2025-03-14 17:00:04.340000,-0.4555664,0.798584,0.35864258,3.601074,6.408691,-0.24414061
170,2025-03-14 17:00:04.350000,-0.45166016,0.80249023,0.35717773,3.967285,6.9580073,-0.30517578
171,2025-03-14 17:00:04.360000,-0.4519043,0.8059082,0.35327148,4.0893555,7.629394,-0.30517578
172,2025-03-14 17:00:04.370000,-0.4489746,0.80859375,0.34692383,4.0893555,8.056641,-0.18310545
173,2025-03-14 17:00:04.380000,-0.45166016,0.8034668,0.3395996,4.0893555,8.361816,-0.061035153
174,2025-03-14 17:00:04.390000,-0.45092773,0.8029785,0.33935547,4.0893555,8.361816,-0.18310545
175,2025-03-14 17:00:04.400000,-0.45214844,0.8010254,0.33740234,4.1503906,8.178711,-0.30517578
176,2025-03-14 17:00:04.410000,-0.44848633,0.8017578,0.33398438,4.0283203,7.568359,-0.61035156
177,2025-03-14 17:00:04.420000,-0.4519043,0.80322266,0.33007812,3.9062498,6.7138667,-0.97656244
178,2025-03-14 17:00:04.430000,-0.453125,0.8027344,0.32958984,3.7841794,5.4321284,-1.0375977
179,2025-03-14 17:00:04.440000,-0.4465332,0.8015137,0.32958984,3.4179685,4.0893555,-1.4038085
180,2025-03-14 17:00:04.450000,-0.4465332,0.81030273,0.3293457,3.173828,3.8452146,-1.8920897
181,2025-03-14 17:00:04.460000,-0.45410156,0.8125,0.32958984,2.7465818,4.1503906,-2.1972656
182,2025-03-14 17:00:04.470000,-0.46191406,0.8071289,0.33081055,2.6245115,4.211426,-2.0751953
183,2025-03-14 17:00:04.480000,-0.46240234,0.8046875,0.3317871,2.5634763,4.211426,-2.0751953
184,2025-03-14 17:00:04.490000,-0.46313477,0.8015137,0.33569336,2.6855466,4.272461,-2.0141602
185,2025-03-14 17:00:04.500000,-0.46850586,0.80126953,0.33569336,2.6245115,4.4555664,-1.8920897
186,2025-03-14 17:00:04.510000,-0.46704102,0.8027344,0.32592773,2.5634763,4.4555664,-1.8920897
187,2025-03-14 17:00:04.520000,-0.46655273,0.80322266,0.32373047,2.4414062,4.272461,-1.6479491
188,2025-03-14 17:00:04.530000,-0.4699707,0.7980957,0.3244629,1.9531249,4.0283203,-1.0986328
189,2025-03-14 17:00:04.540000,-0.47143555,0.79956055,0.32080078,1.5258788,3.601074,-0.8544921
190,2025-03-14 17:00:04.550000,-0.47021484,0.8017578,0.31591797,1.3427733,2.9907224,-0.8544921
191,2025-03-14 17:00:04.560000,-0.46875,0.80126953,0.31762695,1.0375977,2.4414062,-0.793457
192,2025-03-14 17:00:04.570000,-0.4675293,0.8010254,0.3137207,0.793457,1.5258788,-0.97656244
193,2025-03-14 17:00:04.580000,-0.4663086,0.8063965,0.30810547,0.67138666,0.48828122,-1.2207031
194,2025-03-14 17:00:04.590000,-0.46435547,0.8078613,0.3112793,0.061035153,-0.42724606,-1.2207031
195,2025-03-14 17:00:04.600000,-0.46044922,0.8088379,0.31054688,-0.48828122,-1.2207031,-1.2207031
196,2025-03-14 17:00:04.610000,-0.46044922,0.8100586,0.30859375,-0.793457,-1.8310546,-1.4038085
197,2025-03-14 17:00:04.620000,-0.4621582,0.8105469,0.30981445,-1.4038085,-2.1362305,-1.4038085
198,2025-03-14 17:00:04.630000,-0.46142578,0.80737305,0.31689453,-1.8310546,-2.380371,-1.2207031
199,2025-03-14 17:00:04.640000,-0.45751953,0.79956055,0.32495117,-2.1972656,-2.868652,-1.2207031
200,2025-03-14 17:00:04.650000,-0.4580078,0.79956055,0.3293457,-2.0751953,-3.1127927,-1.6479491
201,2025-03-14 17:00:04.660000,-0.45874023,0.8010254,0.3359375,-2.1362305,-3.1127927,-1.7700194
202,2025-03-14 17:00:04.670000,-0.46044922,0.7922363,0.34179688,-2.0141602,-3.0517576,-1.5258788
203,2025-03-14 17:00:04.680000,-0.4699707,0.7902832,0.3491211,-1.3427733,-2.9907224,-1.7089843
204,2025-03-14 17:00:04.690000,-0.47705078,0.79833984,0.34960938,-0.67138666,-2.9296873,-1.7700194
205,2025-03-14 17:00:04.700000,-0.4753418,0.80200195,0.34716797,-0.48828122,-2.5634763,-1.586914
206,2025-03-14 17:00:04.710000,-0.47729492,0.8071289,0.34765625,-0.42724606,-2.0141602,-1.2207031
207,2025-03-14 17:00:04.720000,-0.47460938,0.80566406,0.34570312,-0.30517578,-1.4648436,-0.8544921
208,2025-03-14 17:00:04.730000,-0.47192383,0.8095703,0.34179688,-0.3662109,-0.9155273,-0.5493164
209,2025-03-14 17:00:04.740000,-0.4658203,0.8112793,0.3359375,-0.42724606,-0.61035156,-0.122070305
210,2025-03-14 17:00:04.750000,-0.46069336,0.81225586,0.33447266,-0.7324218,0.0,0.3662109
211,2025-03-14 17:00:04.760000,-0.45654297,0.8093262,0.33544922,-0.97656244,1.0375977,0.42724606
212,2025-03-14 17:00:04.770000,-0.45043945,0.8054199,0.3388672,-1.0375977,1.7700194,0.3662109
213,2025-03-14 17:00:04.780000,-0.4482422,0.8005371,0.3388672,-1.2207031,2.2583008,0.0
214,2025-03-14 17:00:04.790000,-0.44995117,0.80078125,0.34277344,-1.159668,2.4414062,-0.7324218
215,2025-03-14 17:00:04.800000,-0.45263672,0.80029297,0.3466797,-1.2817382,2.807617,-1.159668
216,2025-03-14 17:00:04.810000,-0.46044922,0.7939453,0.35327148,-1.4038085,3.234863,-1.2207031
217,2025-03-14 17:00:04.820000,-0.46679688,0.7858887,0.35791016,-1.0986328,3.4179685,-1.4648436
218,2025-03-14 17:00:04.830000,-0.46850586,0.78271484,0.36010742,-0.48828122,3.5400388,-2.0751953
219,2025-03-14 17:00:04.840000,-0.47143555,0.78808594,0.35668945,0.3662109,3.9062498,-2.868652
220,2025-03-14 17:00:04.850000,-0.47509766,0.7949219,0.35009766,1.0986328,4.5166016,-3.2958982
221,2025-03-14 17:00:04.860000,-0.47827148,0.7993164,0.33862305,1.7700194,5.3710933,-3.234863
222,2025-03-14 17:00:04.870000,-0.47998047,0.80249023,0.3334961,2.319336,6.103515,-2.868652
223,2025-03-14 17:00:04.880000,-0.48046875,0.80126953,0.33740234,2.319336,6.5307612,-2.1972656
224,2025-03-14 17:00:04.890000,-0.47827148,0.80126953,0.33813477,2.319336,7.0800776,-1.7700194
225,2025-03-14 17:00:04.900000,-0.47387695,0.80566406,0.33813477,2.2583008,8.117676,-1.7089843
226,2025-03-14 17:00:04.910000,-0.46777344,0.8066406,0.3544922,1.7700194,9.521484,-1.7700194
227,2025-03-14 17:00:04.920000,-0.4638672,0.8029785,0.37939453,1.159668,11.535644,-1.7700194
228,2025-03-14 17:00:04.930000,-0.45532227,0.79345703,0.40112305,0.8544921,13.97705,-1.9531249
229,2025-03-14 17:00:04.940000,-0.44555664,0.7922363,0.42504883,1.0375977,17.150879,-2.4414062
230,2025-03-14 17:00:04.950000,-0.43969727,0.7956543,0.44580078,1.7089843,21.423338,-3.4179685
231,2025-03-14 17:00:04.960000,-0.43115234,0.8034668,0.45874023,3.234863,26.916502,-4.0893555
232,2025-03-14 17:00:04.970000,-0.41601562,0.8088379,0.45458984,4.9438477,33.26416,-4.760742
233,2025-03-14 17:00:04.980000,-0.4008789,0.80615234,0.4584961,6.408691,39.916992,-5.187988
234,2025-03-14 17:00:04.990000,-0.40649414,0.8034668,0.453125,7.568359,46.32568,-5.249023
235,2025-03-14 17:00:05.000000,-0.4152832,0.79785156,0.43701172,9.155273,51.330563,-6.347656
236,2025-03-14 17:00:05.010000,-0.41088867,0.8039551,0.43481445,10.559081,54.62646,-7.0800776
237,2025-03-14 17:00:05.020000,-0.41381836,0.8093262,0.43676758,11.230468,56.88476,-8.117676
238,2025-03-14 17:00:05.030000,-0.40698242,0.8051758,0.4416504,11.718749,57.861324,-9.82666
239,2025-03-14 17:00:05.040000,-0.40966797,0.7973633,0.43920898,12.634276,58.959957,-10.559081
240,2025-03-14 17:00:05.050000,-0.42626953,0.79052734,0.4296875,14.09912,59.997555,-11.291503
241,2025-03-14 17:00:05.060000,-0.42260742,0.7897949,0.42944336,16.296387,61.523434,-12.634276
242,2025-03-14 17:00:05.070000,-0.41967773,0.79052734,0.41210938,18.737793,64.208984,-13.793944
243,2025-03-14 17:00:05.080000,-0.40771484,0.78564453,0.38500977,21.606443,70.251465,-14.892577
244,2025-03-14 17:00:05.090000,-0.38891602,0.7807617,0.36547852,24.29199,80.38329,-15.197753
245,2025-03-14 17:00:05.100000,-0.375,0.7746582,0.33569336,26.123045,93.9331,-15.502929
246,2025-03-14 17:00:05.110000,-0.3840332,0.7631836,0.28686523,28.07617,109.31396,-16.540527
247,2025-03-14 17:00:05.120000,-0.43017578,0.7597656,0.23510742,30.517576,122.61962,-17.76123
248,2025-03-14 17:00:05.129999,-0.4892578,0.7595215,0.19726562,32.592773,129.08936,-18.859863
249,2025-03-14 17:00:05.139999,-0.5410156,0.75634766,0.1706543,34.240723,125.54931,-19.592285
250,2025-03-14 17:00:05.150000,-0.55566406,0.75146484,0.15649414,35.827637,114.56298,-20.26367
251,2025-03-14 17:00:05.160000,-0.5534668,0.74316406,0.1303711,37.17041,101.25732,-21.240232
252,2025-03-14 17:00:05.170000,-0.5539551,0.73413086,0.10131836,38.513184,88.98925,-21.728514
253,2025-03-14 17:00:05.180000,-0.5588379,0.7233887,0.07055664,39.733887,79.40674,-21.362303
254,2025-03-14 17:00:05.190000,-0.56591797,0.7182617,0.020751953,41.564938,73.24219,-22.27783
255,2025-03-14 17:00:05.200000,-0.560791,0.72094727,-0.0087890625,42.78564,71.16699,-23.498533
256,2025-03-14 17:00:05.210000,-0.5488281,0.7102051,-0.028076172,42.29736,74.035645,-23.437498
257,2025-03-14 17:00:05.220000,-0.55029297,0.7080078,-0.047607422,43.457027,81.05468,-23.803709
258,2025-03-14 17:00:05.230000,-0.57055664,0.7258301,-0.05444336,45.71533,89.84374,-25.634764
259,2025-03-14 17:00:05.240000,-0.60498047,0.7416992,-0.05517578,47.485348,97.53417,-26.611326
260,2025-03-14 17:00:05.250000,-0.65283203,0.7468262,-0.06762695,48.95019,101.13525,-24.780272
261,2025-03-14 17:00:05.260000,-0.69799805,0.74438477,-0.09448242,49.804684,99.4873,-21.667479
262,2025-03-14 17:00:05.270000,-0.72387695,0.7480469,-0.111328125,49.133297,91.97997,-19.470215
263,2025-03-14 17:00:05.280000,-0.72143555,0.7402344,-0.125,46.630856,79.28467,-18.188477
264,2025-03-14 17:00:05.290000,-0.70214844,0.72680664,-0.14477539,44.494625,65.18555,-17.089844
265,2025-03-14 17:00:05.300000,-0.6496582,0.7314453,-0.14477539,42.358395,54.565426,-17.39502
266,2025-03-14 17:00:05.310000,-0.5944824,0.7270508,-0.13769531,40.039062,50.170895,-17.51709
267,2025-03-14 17:00:05.320000,-0.56811523,0.7199707,-0.13354492,38.879395,52.185055,-16.662598
268,2025-03-14 17:00:05.330000,-0.5546875,0.7248535,-0.12988281,38.757324,57.861324,-15.624999
269,2025-03-14 17:00:05.340000,-0.5546875,0.7163086,-0.11450195,39.123535,64.086914,-14.526366
270,2025-03-14 17:00:05.350000,-0.56103516,0.7043457,-0.103515625,41.13769,70.67871,-13.732909
271,2025-03-14 17:00:05.360000,-0.5710449,0.7097168,-0.09375,44.67773,75.07324,-13.671874
272,2025-03-14 17:00:05.370000,-0.5800781,0.7092285,-0.111328125,48.21777,75.13428,-12.878417
273,2025-03-14 17:00:05.380000,-0.5810547,0.7182617,-0.14770508,51.208492,70.617676,-11.779784
274,2025-03-14 17:00:05.390000,-0.57177734,0.7307129,-0.17333984,52.795406,64.208984,-11.230468
275,2025-03-14 17:00:05.400000,-0.5480957,0.7199707,-0.20385742,52.795406,59.020992,-11.413573
276,2025-03-14 17:00:05.410000,-0.5241699,0.70947266,-0.23779297,54.13818,58.715816,-12.390136
277,2025-03-14 17:00:05.420000,-0.5227051,0.73046875,-0.26342773,54.26025,62.866207,-15.197753
278,2025-03-14 17:00:05.430000,-0.546875,0.7348633,-0.29516602,51.452633,67.68799,-17.63916
279,2025-03-14 17:00:05.440000,-0.5842285,0.7290039,-0.30444336,49.377438,70.06836,-17.944336
280,2025-03-14 17:00:05.450000,-0.611084,0.7199707,-0.31079102,47.790524,68.29834,-17.028809
281,2025-03-14 17:00:05.460000,-0.6274414,0.7043457,-0.3408203,46.752926,62.07275,-15.0146475
282,2025-03-14 17:00:05.470000,-0.6203613,0.701416,-0.36450195,46.142574,55.358883,-13.0615225
283,2025-03-14 17:00:05.480000,-0.58862305,0.7006836,-0.38671875,44.860836,50.903316,-11.96289
284,2025-03-14 17:00:05.490000,-0.56762695,0.6977539,-0.4116211,43.701168,49.74365,-11.047362
285,2025-03-14 17:00:05.500000,-0.5690918,0.6899414,-0.4362793,43.02978,50.903316,-9.82666
286,2025-03-14 17:00:05.510000,-0.58813477,0.69091797,-0.45483398,42.66357,51.75781,-8.605957
287,2025-03-14 17:00:05.520000,-0.6062012,0.68603516,-0.45288086,41.198727,50.537106,-6.9580073
288,2025-03-14 17:00:05.530000,-0.61499023,0.66552734,-0.45898438,39.489746,45.776363,-6.408691
289,2025-03-14 17:00:05.540000,-0.61206055,0.6501465,-0.46728516,37.65869,39.79492,-7.568359
290,2025-03-14 17:00:05.550000,-0.61035156,0.65063477,-0.46728516,35.40039,35.095215,-9.216309
291,2025-03-14 17:00:05.560000,-0.6237793,0.6503906,-0.45166016,32.287598,32.714844,-9.94873
292,2025-03-14 17:00:05.570000,-0.62280273,0.6435547,-0.45922852,29.479979,30.517576,-9.643555
293,2025-03-14 17:00:05.580000,-0.6274414,0.6442871,-0.45507812,26.794432,26.855467,-9.094238
294,2025-03-14 17:00:05.590000,-0.63549805,0.6418457,-0.46362305,24.29199,24.230955,-7.8124995
295,2025-03-14 17:00:05.600000,-0.64038086,0.63964844,-0.4819336,22.888182,22.27783,-5.7983394
296,2025-03-14 17:00:05.610000,-0.64941406,0.6333008,-0.50268555,22.03369,19.348145,-3.7841794
297,2025-03-14 17:00:05.620000,-0.6291504,0.64160156,-0.53222656,21.545408,15.136718,-2.380371
298,2025-03-14 17:00:05.630000,-0.59106445,0.64697266,-0.54589844,20.1416,10.864257,-1.2817382
299,2025-03-14 17:00:05.640000,-0.5698242,0.6520996,-0.5566406,18.676758,7.4462886,-0.67138666
300,2025-03-14 17:00:05.650000,-0.55859375,0.6616211,-0.5605469,16.784668,4.5166016,-0.061035153
301,2025-03-14 17:00:05.660000,-0.55566406,0.6635742,-0.5449219,14.587401,2.319336,1.159668
302,2025-03-14 17:00:05.670000,-0.55859375,0.671875,-0.5205078,12.573241,0.122070305,2.1362305
303,2025-03-14 17:00:05.680000,-0.53808594,0.67407227,-0.45947266,10.864257,-0.8544921,2.0751953
304,2025-03-14 17:00:05.690000,-0.5095215,0.66137695,-0.39892578,11.047362,2.5024414,1.3427733
305,2025-03-14 17:00:05.700000,-0.5019531,0.6608887,-0.35742188,11.840819,10.437011,-0.061035153
306,2025-03-14 17:00:05.710000,-0.52856445,0.673584,-0.33984375,11.1083975,18.920898,-0.9155273
307,2025-03-14 17:00:05.720000,-0.564209,0.6772461,-0.3552246,9.033203,25.024412,-1.0375977
308,2025-03-14 17:00:05.730000,-0.58618164,0.68310547,-0.38110352,5.9204097,28.259275,-1.2207031
309,2025-03-14 17:00:05.740000,-0.57421875,0.69311523,-0.3947754,2.6855466,28.991697,-1.6479491
310,2025-03-14 17:00:05.750000,-0.5383301,0.69091797,-0.40942383,1.4038085,27.83203,-1.8310546
311,2025-03-14 17:00:05.760000,-0.5251465,0.6755371,-0.4260254,2.1972656,26.42822,-1.8310546
312,2025-03-14 17:00:05.770000,-0.5239258,0.66308594,-0.4411621,3.5400388,26.123045,-2.319336
313,2025-03-14 17:00:05.780000,-0.5126953,0.65600586,-0.4724121,5.5541987,25.390623,-2.4414062
314,2025-03-14 17:00:05.790000,-0.5083008,0.64404297,-0.50390625,6.347656,23.559568,-2.0751953
315,2025-03-14 17:00:05.800000,-0.5107422,0.63623047,-0.532959,5.4931636,21.057127,-2.9907224
316,2025-03-14 17:00:05.810000,-0.5209961,0.6279297,-0.5522461,4.333496,18.371582,-4.699707
317,2025-03-14 17:00:05.820000,-0.5415039,0.62597656,-0.55859375,2.4414062,15.8081045,-5.9204097
318,2025-03-14 17:00:05.830000,-0.5671387,0.6230469,-0.5551758,0.0,12.634276,-6.408691
319,2025-03-14 17:00:05.840000,-0.5822754,0.6191406,-0.5473633,-2.5024414,9.033203,-6.347656
320,2025-03-14 17:00:05.850000,-0.5986328,0.595459,-0.52490234,-4.5776367,6.1645503,-4.272461
321,2025-03-14 17:00:05.860000,-0.60717773,0.5944824,-0.50439453,-5.4321284,4.4555664,-2.5024414
322,2025-03-14 17:00:05.870000,-0.5974121,0.5883789,-0.4855957,-5.5541987,3.173828,-1.0986328
323,2025-03-14 17:00:05.879999,-0.5834961,0.5979004,-0.4753418,-3.601074,2.868652,-0.061035153
324,2025-03-14 17:00:05.889999,-0.5773926,0.62231445,-0.47875977,-1.6479491,4.0283203,0.30517578
325,2025-03-14 17:00:05.899999,-0.56347656,0.63012695,-0.48950195,0.30517578,4.5776367,0.97656244
326,2025-03-14 17:00:05.909999,-0.5449219,0.63964844,-0.49804688,3.4179685,3.3569334,1.9531249
327,2025-03-14 17:00:05.919999,-0.5332031,0.6452637,-0.49902344,3.9062498,1.0986328,2.0141602
328,2025-03-14 17:00:05.929999,-0.52734375,0.6435547,-0.5217285,1.9531249,-0.7324218,1.7700194
329,2025-03-14 17:00:05.939999,-0.52368164,0.65478516,-0.5258789,0.42724606,-2.1972656,1.159668
330,2025-03-14 17:00:05.949999,-0.5205078,0.6591797,-0.5090332,-1.0375977,-3.9062498,0.18310545
331,2025-03-14 17:00:05.960000,-0.52978516,0.65527344,-0.48608398,-2.1362305,-5.615234,-0.793457
332,2025-03-14 17:00:05.970000,-0.5407715,0.6491699,-0.46289062,-2.4414062,-5.981445,-1.159668
333,2025-03-14 17:00:05.980000,-0.55444336,0.63378906,-0.44458008,-2.1362305,-5.0659175,-0.67138666
334,2025-03-14 17:00:05.990000,-0.5600586,0.6220703,-0.43310547,-1.3427733,-3.967285,-0.42724606
335,2025-03-14 17:00:06.000000,-0.55322266,0.6230469,-0.4309082,-0.5493164,-1.9531249,-0.3662109
336,2025-03-14 17:00:06.010000,-0.54833984,0.62524414,-0.43066406,-0.122070305,0.24414061,-0.18310545
337,2025-03-14 17:00:06.020000,-0.56347656,0.62939453,-0.45239258,1.0986328,2.6245115,0.0
338,2025-03-14 17:00:06.030000,-0.5749512,0.6281738,-0.47729492,2.0751953,4.9438477,0.8544921
339,2025-03-14 17:00:06.040000,-0.5617676,0.63256836,-0.5024414,2.4414062,4.4555664,1.7089843
340,2025-03-14 17:00:06.050000,-0.5332031,0.6374512,-0.51904297,2.7465818,1.5258788,1.586914
341,2025-03-14 17:00:06.060000,-0.5070801,0.6328125,-0.5205078,3.7231443,-0.67138666,1.4038085
342,2025-03-14 17:00:06.070000,-0.49487305,0.6398926,-0.5246582,5.004883,-2.319336,0.42724606
343,2025-03-14 17:00:06.080000,-0.49389648,0.6425781,-0.52685547,5.004883,-3.9062498,-0.9155273
344,2025-03-14 17:00:06.090000,-0.5031738,0.63378906,-0.5163574,4.5166016,-5.615234,-1.7700194
345,2025-03-14 17:00:06.100000,-0.5266113,0.63012695,-0.49804688,3.967285,-7.5073237,-3.1127927
346,2025-03-14 17:00:06.110000,-0.5395508,0.62939453,-0.4753418,2.9907224,-8.7890625,-4.4555664
347,2025-03-14 17:00:06.120000,-0.5505371,0.6347656,-0.4482422,2.2583008,-9.216309,-5.7983394
348,2025-03-14 17:00:06.129999,-0.5649414,0.6401367,-0.4284668,1.2817382,-8.483887,-6.5307612
349,2025-03-14 17:00:06.139999,-0.5769043,0.6398926,-0.40795898,0.122070305,-6.896972,-5.737304
350,2025-03-14 17:00:06.150000,-0.58032227,0.6477051,-0.390625,-0.61035156,-4.9438477,-4.760742
351,2025-03-14 17:00:06.160000,-0.58203125,0.66674805,-0.38330078,-0.5493164,-3.601074,-4.0893555
352,2025-03-14 17:00:06.170000,-0.5686035,0.67578125,-0.39379883,0.122070305,-2.6855466,-3.173828
353,2025-03-14 17:00:06.180000,-0.5324707,0.6730957,-0.4165039,0.5493164,-1.5258788,-2.0751953
354,2025-03-14 17:00:06.190000,-0.5024414,0.6640625,-0.42700195,0.8544921,0.793457,-1.8920897
355,2025-03-14 17:00:06.200000,-0.48535156,0.6599121,-0.43798828,1.0375977,3.3569334,-2.9907224
356,2025-03-14 17:00:06.210000,-0.48217773,0.64160156,-0.4663086,0.97656244,4.5166016,-4.1503906
357,2025-03-14 17:00:06.220000,-0.4790039,0.6308594,-0.4892578,1.9531249,5.5541987,-5.676269
358,2025-03-14 17:00:06.230000,-0.49194336,0.6257324,-0.5024414,3.234863,7.4462886,-6.408691
359,2025-03-14 17:00:06.240000,-0.5292969,0.6257324,-0.5085449,3.9062498,8.7890625,-6.469726
360,2025-03-14 17:00:06.240000,-0.5708008,0.62060547,-0.50439453,4.1503906,8.605957,-6.1645503
361,2025-03-14 17:00:06.250000,-0.5908203,0.6176758,-0.5048828,4.0283203,7.0800776,-5.1269526
362,2025-03-14 17:00:06.260000,-0.6123047,0.6130371,-0.49804688,3.4179685,3.4179685,-4.272461
363,2025-03-14 17:00:06.270000,-0.626709,0.6081543,-0.48950195,2.5634763,-0.061035153,-3.601074
364,2025-03-14 17:00:06.280000,-0.62109375,0.59887695,-0.46606445,2.0141602,-1.8310546,-2.7465818
365,2025-03-14 17:00:06.290000,-0.6105957,0.59375,-0.4428711,1.7700194,-2.807617,-2.1972656
366,2025-03-14 17:00:06.300000,-0.60058594,0.6020508,-0.41870117,1.6479491,-2.319336,-1.7700194
367,2025-03-14 17:00:06.310000,-0.5786133,0.6152344,-0.4091797,1.6479491,-0.5493164,-0.97656244
368,2025-03-14 17:00:06.320000,-0.5493164,0.61279297,-0.41674805,1.9531249,2.1362305,-0.24414061
369,2025-03-14 17:00:06.330000,-0.5319824,0.60717773,-0.4375,2.319336,6.469726,-0.5493164
370,2025-03-14 17:00:06.340000,-0.54418945,0.6152344,-0.4675293,2.2583008,10.925292,-1.0375977
371,2025-03-14 17:00:06.350000,-0.5593262,0.60791016,-0.48486328,1.8310546,13.000487,-0.67138666
372,2025-03-14 17:00:06.360000,-0.54956055,0.5996094,-0.49267578,2.0141602,12.329101,-0.5493164
373,2025-03-14 17:00:06.370000,-0.54248047,0.6032715,-0.5102539,2.2583008,10.681151,-1.2207031
374,2025-03-14 17:00:06.380000,-0.55126953,0.607666,-0.5407715,2.5634763,8.850098,-1.0375977
375,2025-03-14 17:00:06.390000,-0.56274414,0.60668945,-0.5546875,3.1127927,7.202148,-0.30517578
376,2025-03-14 17:00:06.400000,-0.564209,0.62231445,-0.5612793,3.7231443,4.8828125,-0.793457
377,2025-03-14 17:00:06.410000,-0.5563965,0.6340332,-0.5588379,3.3569334,1.6479491,-1.159668
378,2025-03-14 17:00:06.420000,-0.5493164,0.642334,-0.5373535,2.4414062,-1.7089843,-0.7324218
379,2025-03-14 17:00:06.430000,-0.5480957,0.6455078,-0.51171875,1.0375977,-4.0893555,-0.18310545
380,2025-03-14 17:00:06.440000,-0.5439453,0.6386719,-0.48388672,-0.061035153,-4.699707,0.122070305
381,2025-03-14 17:00:06.450000,-0.5373535,0.6291504,-0.44848633,-0.30517578,-3.4179685,0.48828122
382,2025-03-14 17:00:06.460000,-0.5361328,0.625,-0.42626953,-0.18310545,-1.159668,0.122070305
383,2025-03-14 17:00:06.470000,-0.53759766,0.62597656,-0.4152832,0.42724606,1.6479491,-0.48828122
384,2025-03-14 17:00:06.480000,-0.53564453,0.6237793,-0.4284668,1.0375977,3.967285,-0.67138666
385,2025-03-14 17:00:06.490000,-0.5402832,0.62231445,-0.45922852,1.3427733,5.187988,-0.97656244
386,2025-03-14 17:00:06.500000,-0.54174805,0.62597656,-0.49267578,1.4648436,5.4931636,-1.4038085
387,2025-03-14 17:00:06.510000,-0.546875,0.6201172,-0.5114746,0.9155273,4.699707,-1.159668
388,2025-03-14 17:00:06.520000,-0.546875,0.61621094,-0.5283203,0.42724606,2.9296873,-0.793457
389,2025-03-14 17:00:06.530000,-0.5383301,0.6159668,-0.53515625,0.18310545,1.0986328,-0.7324218
390,2025-03-14 17:00:06.540000,-0.5439453,0.62402344,-0.53222656,0.0,-0.18310545,-0.5493164
391,2025-03-14 17:00:06.550000,-0.55249023,0.62524414,-0.532959,-0.122070305,-0.48828122,-0.18310545
392,2025-03-14 17:00:06.560000,-0.55981445,0.6237793,-0.53149414,-0.30517578,-1.0375977,0.61035156
393,2025-03-14 17:00:06.570000,-0.5588379,0.623291,-0.5187988,-0.9155273,-2.807617,1.4038085
394,2025-03-14 17:00:06.580000,-0.55444336,0.6201172,-0.50439453,-1.7089843,-5.187988,1.8310546
395,2025-03-14 17:00:06.590000,-0.54467773,0.62060547,-0.49169922,-2.0751953,-5.8593745,1.7700194
396,2025-03-14 17:00:06.600000,-0.5432129,0.61621094,-0.47680664,-2.2583008,-4.5166016,2.1972656
397,2025-03-14 17:00:06.610000,-0.5463867,0.6069336,-0.47045898,-1.9531249,-3.3569334,2.5024414
398,2025-03-14 17:00:06.620000,-0.5480957,0.6123047,-0.4658203,-1.2207031,-2.5634763,2.2583008
399,2025-03-14 17:00:06.630000,-0.5410156,0.6164551,-0.4724121,-0.793457,-1.8310546,2.0141602
400,2025-03-14 17:00:06.640000,-0.53637695,0.61499023,-0.4765625,-0.5493164,-0.61035156,1.9531249
401,2025-03-14 17:00:06.650000,-0.54125977,0.61865234,-0.47875977,-0.24414061,0.8544921,2.1362305
402,2025-03-14 17:00:06.660000,-0.5500488,0.6225586,-0.48706055,-0.122070305,1.4038085,2.2583008
403,2025-03-14 17:00:06.670000,-0.5500488,0.62109375,-0.50146484,-0.24414061,1.0375977,2.5024414
404,2025-03-14 17:00:06.680000,-0.54418945,0.6166992,-0.5124512,-0.7324218,0.67138666,2.9907224
405,2025-03-14 17:00:06.690000,-0.5439453,0.6166992,-0.5280762,-1.3427733,0.0,2.9907224
406,2025-03-14 17:00:06.700000,-0.5505371,0.6159668,-0.5361328,-2.0751953,-1.2207031,2.9296873
407,2025-03-14 17:00:06.710000,-0.55200195,0.6152344,-0.53637695,-2.6245115,-3.3569334,3.1127927
408,2025-03-14 17:00:06.720000,-0.55200195,0.62231445,-0.5292969,-3.4179685,-6.04248,2.9296873
409,2025-03-14 17:00:06.730000,-0.54541016,0.63061523,-0.5187988,-4.5166016,-8.117676,2.807617
410,2025-03-14 17:00:06.740000,-0.5354004,0.6357422,-0.5097656,-5.310058,-8.7890625,3.1127927
411,2025-03-14 17:00:06.750000,-0.53344727,0.63671875,-0.50805664,-6.1645503,-8.972168,4.0893555
412,2025-03-14 17:00:06.760000,-0.5449219,0.63549805,-0.5107422,-6.774902,-9.70459,4.760742
413,2025-03-14 17:00:06.770000,-0.5410156,0.642334,-0.5078125,-6.835937,-10.437011,4.638672
414,2025-03-14 17:00:06.780000,-0.5241699,0.642334,-0.49267578,-6.6528316,-10.498046,4.9438477
415,2025-03-14 17:00:06.790000,-0.5241699,0.6381836,-0.48364258,-6.2866206,-10.437011,5.249023
416,2025-03-14 17:00:06.800000,-0.52441406,0.626709,-0.47753906,-5.737304,-10.986327,4.9438477
417,2025-03-14 17:00:06.810000,-0.53149414,0.6196289,-0.47729492,-5.4931636,-12.023925,4.0283203
418,2025-03-14 17:00:06.820000,-0.5371094,0.626709,-0.47851562,-5.187988,-12.512206,2.9296873
419,2025-03-14 17:00:06.830000,-0.53881836,0.63256836,-0.4777832,-5.3710933,-13.122558,2.4414062
420,2025-03-14 17:00:06.840000,-0.5437012,0.6386719,-0.47631836,-5.9204097,-14.038085,2.0141602
421,2025-03-14 17:00:06.850000,-0.5395508,0.64575195,-0.47607422,-6.469726,-14.465331,1.5258788
422,2025-03-14 17:00:06.860000,-0.54003906,0.65112305,-0.48291016,-7.263183,-14.404296,1.6479491
423,2025-03-14 17:00:06.870000,-0.5476074,0.65063477,-0.4855957,-8.300781,-13.916015,2.2583008
424,2025-03-14 17:00:06.880000,-0.55688477,0.6413574,-0.4868164,-9.338379,-13.244628,3.0517576
425,2025-03-14 17:00:06.890000,-0.5690918,0.6335449,-0.49267578,-10.437011,-13.305663,3.9062498
426,2025-03-14 17:00:06.900000,-0.57592773,0.64282227,-0.49169922,-11.291503,-13.97705,3.8452146
427,2025-03-14 17:00:06.910000,-0.5734863,0.65722656,-0.4951172,-11.718749,-15.319823,3.601074
428,2025-03-14 17:00:06.920000,-0.56347656,0.65893555,-0.49414062,-10.925292,-17.27295,4.333496
429,2025-03-14 17:00:06.930000,-0.5397949,0.65283203,-0.47583008,-9.887695,-18.371582,4.8828125
430,2025-03-14 17:00:06.940000,-0.5151367,0.6464844,-0.45239258,-9.70459,-18.493652,4.333496
431,2025-03-14 17:00:06.950000,-0.5097656,0.64624023,-0.42993164,-9.216309,-17.76123,3.173828
432,2025-03-14 17:00:06.960000,-0.51660156,0.6437988,-0.4140625,-8.666992,-16.540527,1.8920897
433,2025-03-14 17:00:06.970000,-0.5258789,0.6398926,-0.39501953,-7.8735347,-15.441894,0.97656244
434,2025-03-14 17:00:06.980000,-0.54418945,0.63793945,-0.38110352,-7.0190425,-14.343261,-0.18310545
435,2025-03-14 17:00:06.990000,-0.56152344,0.63671875,-0.37597656,-6.347656,-12.451171,-1.159668
436,2025-03-14 17:00:07.000000,-0.5732422,0.6333008,-0.3798828,-5.4931636,-10.681151,-1.159668
437,2025-03-14 17:00:07.010000,-0.58447266,0.6274414,-0.38867188,-4.8217773,-9.460449,-0.7324218
438,2025-03-14 17:00:07.020000,-0.5871582,0.63061523,-0.3947754,-4.211426,-8.300781,-0.8544921
439,2025-03-14 17:00:07.030000,-0.58447266,0.64624023,-0.4099121,-3.5400388,-7.0800776,-1.2207031
440,2025-03-14 17:00:07.040000,-0.57910156,0.66845703,-0.40966797,-3.0517576,-6.408691,-0.7324218
441,2025-03-14 17:00:07.050000,-0.56103516,0.67993164,-0.4091797,-2.9296873,-6.103515,0.24414061
442,2025-03-14 17:00:07.060000,-0.54296875,0.68969727,-0.41455078,-2.380371,-7.263183,0.97656244
443,2025-03-14 17:00:07.070000,-0.5246582,0.6936035,-0.41088867,-1.8920897,-8.361816,1.0986328
444,2025-03-14 17:00:07.080000,-0.50512695,0.7019043,-0.40649414,-1.7700194,-7.8124995,0.30517578
445,2025-03-14 17:00:07.090000,-0.49658203,0.70166016,-0.39624023,-2.1362305,-5.981445,-0.48828122
446,2025-03-14 17:00:07.100000,-0.5053711,0.67944336,-0.38012695,-2.1972656,-4.4555664,-1.0986328
447,2025-03-14 17:00:07.110000,-0.5148926,0.6645508,-0.3671875,-1.7089843,-4.272461,-2.5634763
448,2025-03-14 17:00:07.120000,-0.5319824,0.64453125,-0.359375,-1.4038085,-4.0283203,-3.9062498
449,2025-03-14 17:00:07.129999,-0.55371094,0.6333008,-0.36206055,0.0,-2.9296873,-4.8828125
450,2025-03-14 17:00:07.139999,-0.56518555,0.6418457,-0.36865234,1.6479491,-1.9531249,-6.408691
451,2025-03-14 17:00:07.150000,-0.56884766,0.6513672,-0.37573242,2.807617,-1.159668,-7.202148
452,2025-03-14 17:00:07.160000,-0.5678711,0.6533203,-0.3815918,4.0283203,0.18310545,-7.141113
453,2025-03-14 17:00:07.170000,-0.5673828,0.66381836,-0.39135742,5.187988,0.97656244,-7.202148
454,2025-03-14 17:00:07.180000,-0.56347656,0.67211914,-0.40356445,5.187988,0.9155273,-7.263183
455,2025-03-14 17:00:07.190000,-0.55859375,0.6750488,-0.40795898,5.187988,1.0375977,-7.0800776
456,2025-03-14 17:00:07.200000,-0.54589844,0.6801758,-0.4038086,5.1269526,1.4648436,-6.6528316
457,2025-03-14 17:00:07.210000,-0.5402832,0.6750488,-0.40039062,5.1269526,1.8920897,-6.2866206
458,2025-03-14 17:00:07.220000,-0.54345703,0.6647949,-0.4013672,5.3710933,2.807617,-6.1645503
459,2025-03-14 17:00:07.230000,-0.5515137,0.65600586,-0.41601562,5.615234,3.601074,-6.408691
460,2025-03-14 17:00:07.240000,-0.5571289,0.6550293,-0.42138672,5.676269,4.333496,-6.5917964
461,2025-03-14 17:00:07.250000,-0.56884766,0.65063477,-0.42651367,5.615234,4.8217773,-6.6528316
462,2025-03-14 17:00:07.260000,-0.5866699,0.64819336,-0.43359375,5.8593745,4.638672,-6.5307612
463,2025-03-14 17:00:07.270000,-0.59814453,0.63916016,-0.4416504,5.8593745,4.0893555,-5.615234
464,2025-03-14 17:00:07.280000,-0.6047363,0.6208496,-0.4555664,5.676269,3.7231443,-3.967285
465,2025-03-14 17:00:07.290000,-0.60961914,0.6101074,-0.46166992,5.5541987,3.2958982,-2.868652
466,2025-03-14 17:00:07.300000,-0.60961914,0.6020508,-0.4663086,5.1269526,3.1127927,-2.5024414
467,2025-03-14 17:00:07.310000,-0.6184082,0.5983887,-0.47705078,4.8828125,2.380371,-1.9531249
468,2025-03-14 17:00:07.320000,-0.62597656,0.59033203,-0.4885254,4.638672,1.159668,-1.3427733
469,2025-03-14 17:00:07.330000,-0.6237793,0.5944824,-0.49047852,4.1503906,0.061035153,-1.2817382
470,2025-03-14 17:00:07.340000,-0.6135254,0.6044922,-0.48461914,3.3569334,-1.159668,-1.2207031
471,2025-03-14 17:00:07.350000,-0.59643555,0.61621094,-0.47485352,2.9296873,-2.1972656,-0.9155273
472,2025-03-14 17:00:07.360000,-0.57958984,0.6340332,-0.47265625,3.3569334,-3.601074,-1.0986328
473,2025-03-14 17:00:07.370000,-0.57128906,0.64282227,-0.4814453,3.6621091,-5.249023,-0.61035156
474,2025-03-14 17:00:07.380000,-0.56103516,0.6525879,-0.4951172,3.7231443,-6.7138667,-0.18310545
475,2025-03-14 17:00:07.390000,-0.5493164,0.66503906,-0.49951172,3.6621091,-7.995605,-0.48828122
476,2025-03-14 17:00:07.400000,-0.53686523,0.6699219,-0.49121094,3.4790037,-8.728027,-0.5493164
477,2025-03-14 17:00:07.410000,-0.5361328,0.65966797,-0.4794922,2.9296873,-8.911133,-0.122070305
478,2025-03-14 17:00:07.420000,-0.5539551,0.64208984,-0.4724121,2.5024414,-8.728027,0.122070305
479,2025-03-14 17:00:07.430000,-0.57128906,0.6257324,-0.45922852,2.1972656,-8.728027,-0.18310545
480,2025-03-14 17:00:07.440000,-0.5827637,0.6196289,-0.44750977,1.586914,-9.033203,-1.0375977
481,2025-03-14 17:00:07.450000,-0.5905762,0.6166992,-0.4309082,0.67138666,-8.972168,-1.7700194
482,2025-03-14 17:00:07.460000,-0.59765625,0.61743164,-0.42822266,-0.24414061,-8.911133,-2.5024414
483,2025-03-14 17:00:07.470000,-0.59594727,0.62402344,-0.41479492,-1.2817382,-8.544922,-2.9296873
484,2025-03-14 17:00:07.480000,-0.59375,0.6364746,-0.40014648,-2.6855466,-8.056641,-2.5024414
485,2025-03-14 17:00:07.490000,-0.6003418,0.6376953,-0.4008789,-3.7231443,-8.422852,-1.4038085
486,2025-03-14 17:00:07.500000,-0.60302734,0.63500977,-0.3996582,-3.9062498,-9.033203,-0.67138666
487,2025-03-14 17:00:07.510000,-0.579834,0.64160156,-0.39941406,-2.9907224,-8.239746,-0.7324218
488,2025-03-14 17:00:07.520000,-0.5661621,0.6437988,-0.40600586,-1.586914,-6.774902,-0.48828122
489,2025-03-14 17:00:07.530000,-0.56274414,0.6435547,-0.41186523,0.122070305,-6.103515,-0.30517578
490,2025-03-14 17:00:07.540000,-0.55566406,0.6513672,-0.41235352,1.3427733,-5.9204097,-0.793457
491,2025-03-14 17:00:07.550000,-0.545166,0.6530762,-0.4194336,1.6479491,-5.1269526,-1.5258788
492,2025-03-14 17:00:07.560000,-0.54418945,0.6520996,-0.43237305,1.2207031,-3.4790037,-1.7700194
493,2025-03-14 17:00:07.570000,-0.5595703,0.638916,-0.4411621,0.0,-1.6479491,-1.5258788
494,2025-03-14 17:00:07.580000,-0.5830078,0.6184082,-0.44799805,-1.2817382,-0.61035156,-1.3427733
495,2025-03-14 17:00:07.590000,-0.60009766,0.59887695,-0.44555664,-1.6479491,-0.9155273,-1.586914
496,2025-03-14 17:00:07.600000,-0.6154785,0.5883789,-0.43945312,-1.7089843,-2.5634763,-2.5634763
497,2025-03-14 17:00:07.610000,-0.6254883,0.5883789,-0.4338379,-1.8920897,-3.967285,-3.234863
498,2025-03-14 17:00:07.620000,-0.6376953,0.595459,-0.4362793,-1.9531249,-3.7841794,-3.0517576
499,2025-03-14 17:00:07.630000,-0.6647949,0.59228516,-0.4423828,-2.5634763,-2.9296873,-2.5024414
500,2025-03-14 17:00:07.640000,-0.6765137,0.59765625,-0.44189453,-3.173828,-2.6245115,-1.2817382
501,2025-03-14 17:00:07.650000,-0.6611328,0.62890625,-0.4416504,-4.0893555,-3.967285,-0.67138666
502,2025-03-14 17:00:07.660000,-0.61621094,0.65527344,-0.44580078,-5.004883,-5.5541987,0.061035153
503,2025-03-14 17:00:07.670000,-0.5756836,0.66186523,-0.44921875,-4.638672,-5.676269,1.9531249
504,2025-03-14 17:00:07.680000,-0.55688477,0.65893555,-0.45898438,-3.5400388,-4.8828125,3.4179685
505,2025-03-14 17:00:07.690000,-0.548584,0.64941406,-0.45898438,-2.868652,-5.004883,3.967285
506,2025-03-14 17:00:07.700000,-0.5488281,0.6467285,-0.45288086,-2.6855466,-5.981445,3.4179685
507,2025-03-14 17:00:07.710000,-0.560791,0.6491699,-0.45092773,-2.9296873,-7.202148,2.5634763
508,2025-03-14 17:00:07.720000,-0.5769043,0.64624023,-0.45581055,-3.3569334,-8.7890625,2.1972656
509,2025-03-14 17:00:07.730000,-0.58935547,0.63793945,-0.44726562,-4.1503906,-10.986327,2.1972656
510,2025-03-14 17:00:07.740000,-0.5942383,0.6308594,-0.42871094,-4.8217773,-12.695312,1.7700194
511,2025-03-14 17:00:07.750000,-0.59936523,0.63842773,-0.40795898,-5.249023,-13.549804,0.7324218
512,2025-03-14 17:00:07.760000,-0.60913086,0.63378906,-0.39038086,-5.4931636,-12.939452,1.0375977
513,2025-03-14 17:00:07.770000,-0.6152344,0.61743164,-0.3774414,-5.1269526,-11.96289,2.0141602
514,2025-03-14 17:00:07.780000,-0.62060547,0.60717773,-0.37036133,-3.967285,-11.047362,2.1972656
515,2025-03-14 17:00:07.790000,-0.6201172,0.6118164,-0.36450195,-2.7465818,-9.58252,1.7700194
516,2025-03-14 17:00:07.800000,-0.61376953,0.623291,-0.36914062,-1.5258788,-8.117676,1.4038085
517,2025-03-14 17:00:07.810000,-0.59594727,0.63427734,-0.3803711,-0.61035156,-7.141113,1.159668
518,2025-03-14 17:00:07.820000,-0.5859375,0.64038086,-0.38793945,0.3662109,-6.103515,1.2207031
519,2025-03-14 17:00:07.830000,-0.5839844,0.6484375,-0.39819336,1.2817382,-5.9204097,1.3427733
520,2025-03-14 17:00:07.840000,-0.5847168,0.65771484,-0.4074707,1.8310546,-6.469726,1.0986328
521,2025-03-14 17:00:07.850000,-0.5749512,0.66430664,-0.40356445,2.0141602,-6.6528316,0.793457
522,2025-03-14 17:00:07.860000,-0.5698242,0.6633301,-0.4033203,1.8920897,-5.737304,0.793457
523,2025-03-14 17:00:07.870000,-0.58032227,0.654541,-0.39404297,2.0141602,-4.760742,0.18310545
524,2025-03-14 17:00:07.879999,-0.5859375,0.6538086,-0.38378906,1.7700194,-3.8452146,-0.42724606
525,2025-03-14 17:00:07.889999,-0.5817871,0.6538086,-0.3864746,1.586914,-3.234863,-0.7324218
526,2025-03-14 17:00:07.899999,-0.5891113,0.64746094,-0.39233398,1.8920897,-2.2583008,-0.48828122
527,2025-03-14 17:00:07.909999,-0.6032715,0.6347656,-0.40063477,2.0141602,-1.2817382,-0.3662109
528,2025-03-14 17:00:07.919999,-0.60913086,0.6296387,-0.40844727,2.2583008,-0.9155273,-0.67138666
529,2025-03-14 17:00:07.929999,-0.6062012,0.63305664,-0.4128418,2.4414062,-1.159668,-0.5493164
530,2025-03-14 17:00:07.940000,-0.60058594,0.6413574,-0.42358398,2.380371,-1.586914,-0.30517578
531,2025-03-14 17:00:07.950000,-0.5876465,0.65649414,-0.4309082,1.8310546,-2.1972656,-0.30517578
532,2025-03-14 17:00:07.960000,-0.5734863,0.66186523,-0.43798828,0.61035156,-2.5634763,0.0
533,2025-03-14 17:00:07.970000,-0.576416,0.6599121,-0.44677734,-0.5493164,-2.7465818,0.30517578
534,2025-03-14 17:00:07.980000,-0.5854492,0.65966797,-0.44018555,-1.5258788,-4.1503906,0.61035156
535,2025-03-14 17:00:07.990000,-0.58569336,0.6530762,-0.4309082,-2.319336,-5.8593745,0.61035156
536,2025-03-14 17:00:08.000000,-0.5866699,0.64575195,-0.42236328,-2.6855466,-6.835937,0.61035156
537,2025-03-14 17:00:08.010000,-0.58935547,0.64038086,-0.4182129,-2.9296873,-6.7138667,0.7324218
538,2025-03-14 17:00:08.020000,-0.60791016,0.63256836,-0.41259766,-2.7465818,-6.469726,0.67138666
539,2025-03-14 17:00:08.030000,-0.61938477,0.6257324,-0.40600586,-2.6855466,-6.9580073,0.793457
540,2025-03-14 17:00:08.040000,-0.6225586,0.6203613,-0.4025879,-2.5634763,-7.8124995,0.9155273
541,2025-03-14 17:00:08.050000,-0.62841797,0.61987305,-0.39868164,-2.2583008,-8.178711,1.2207031
542,2025-03-14 17:00:08.060000,-0.6296387,0.6220703,-0.40478516,-1.8310546,-8.178711,1.586914
543,2025-03-14 17:00:08.070000,-0.6245117,0.62524414,-0.41455078,-1.5258788,-8.666992,2.0751953
544,2025-03-14 17:00:08.080000,-0.61206055,0.6254883,-0.4194336,-1.7700194,-9.643555,2.4414062
545,2025-03-14 17:00:08.090000,-0.6113281,0.6311035,-0.42211914,-2.0751953,-10.437011,2.1362305
546,2025-03-14 17:00:08.100000,-0.6142578,0.64038086,-0.42041016,-2.7465818,-11.1083975,2.0751953
547,2025-03-14 17:00:08.110000,-0.61328125,0.6459961,-0.42700195,-3.234863,-12.08496,2.5634763
548,2025-03-14 17:00:08.120000,-0.6130371,0.6455078,-0.43359375,-3.6621091,-13.305663,3.3569334
549,2025-03-14 17:00:08.129999,-0.61157227,0.6503906,-0.4284668,-4.333496,-14.038085,3.967285
550,2025-03-14 17:00:08.139999,-0.6142578,0.65283203,-0.42089844,-4.9438477,-14.343261,4.211426
551,2025-03-14 17:00:08.150000,-0.6220703,0.64819336,-0.41577148,-5.3710933,-15.197753,4.699707
552,2025-03-14 17:00:08.160000,-0.61816406,0.6418457,-0.41308594,-5.5541987,-16.357422,5.249023
553,2025-03-14 17:00:08.170000,-0.6105957,0.63964844,-0.40600586,-5.4321284,-16.723633,5.310058
554,2025-03-14 17:00:08.180000,-0.611084,0.64160156,-0.4038086,-5.187988,-16.418457,5.310058
555,2025-03-14 17:00:08.190000,-0.61865234,0.6472168,-0.40429688,-5.004883,-16.296387,5.187988
556,2025-03-14 17:00:08.200000,-0.6142578,0.64868164,-0.3930664,-4.8217773,-16.540527,5.187988
557,2025-03-14 17:00:08.210000,-0.60595703,0.6467285,-0.3864746,-4.638672,-17.27295,5.249023
558,2025-03-14 17:00:08.220000,-0.6064453,0.65234375,-0.39404297,-4.5166016,-18.188477,4.638672
559,2025-03-14 17:00:08.230000,-0.6010742,0.65844727,-0.39941406,-5.004883,-18.554688,4.333496
560,2025-03-14 17:00:08.240000,-0.5878906,0.6582031,-0.3955078,-5.9204097,-19.042969,4.760742
561,2025-03-14 17:00:08.250000,-0.5905762,0.6621094,-0.39941406,-6.347656,-20.202635,4.0893555
562,2025-03-14 17:00:08.260000,-0.5944824,0.6682129,-0.3996582,-6.5307612,-21.606443,3.2958982
563,2025-03-14 17:00:08.270000,-0.5930176,0.67041016,-0.40014648,-7.141113,-23.132322,3.173828
564,2025-03-14 17:00:08.280000,-0.58618164,0.6767578,-0.40966797,-7.995605,-24.41406,2.6855466
565,2025-03-14 17:00:08.290000,-0.5812988,0.68237305,-0.41552734,-8.911133,-25.512693,2.1972656
566,2025-03-14 17:00:08.300000,-0.5756836,0.6887207,-0.40649414,-10.498046,-26.18408,2.380371
567,2025-03-14 17:00:08.310000,-0.59106445,0.68481445,-0.3815918,-12.023925,-26.489256,2.4414062
568,2025-03-14 17:00:08.320000,-0.6088867,0.6826172,-0.37597656,-12.023925,-27.343748,1.8920897
569,2025-03-14 17:00:08.330000,-0.6140137,0.67211914,-0.3581543,-12.145995,-28.44238,1.9531249
570,2025-03-14 17:00:08.340000,-0.6101074,0.65405273,-0.34716797,-11.291503,-28.07617,1.9531249
571,2025-03-14 17:00:08.350000,-0.61987305,0.64575195,-0.32983398,-9.70459,-27.160643,0.9155273
572,2025-03-14 17:00:08.360000,-0.6328125,0.6452637,-0.30151367,-8.666992,-26.42822,-0.122070305
573,2025-03-14 17:00:08.370000,-0.63061523,0.64282227,-0.2763672,-8.117676,-27.160643,-0.8544921
574,2025-03-14 17:00:08.380000,-0.6437988,0.64868164,-0.25561523,-7.7514644,-28.930662,-1.159668
575,2025-03-14 17:00:08.390000,-0.65625,0.65844727,-0.24316406,-6.774902,-30.09033,-1.2207031
576,2025-03-14 17:00:08.400000,-0.6477051,0.67626953,-0.23486328,-5.0659175,-29.174803,-1.0986328
577,2025-03-14 17:00:08.410000,-0.6335449,0.6882324,-0.2290039,-3.7231443,-26.367186,-0.7324218
578,2025-03-14 17:00:08.420000,-0.6154785,0.69140625,-0.23022461,-3.234863,-22.460936,-0.67138666
579,2025-03-14 17:00:08.430000,-0.60961914,0.69750977,-0.23168945,-3.1127927,-18.066406,-0.3662109
580,2025-03-14 17:00:08.440000,-0.6208496,0.68774414,-0.2355957,-2.868652,-15.0146475,0.793457
581,2025-03-14 17:00:08.450000,-0.6140137,0.6784668,-0.23803711,-2.5634763,-13.8549795,1.8310546
582,2025-03-14 17:00:08.460000,-0.5969238,0.67285156,-0.23950195,-2.9296873,-13.244628,1.6479491
583,2025-03-14 17:00:08.470000,-0.60424805,0.66967773,-0.22851562,-3.1127927,-11.779784,0.7324218
584,2025-03-14 17:00:08.480000,-0.6101074,0.6694336,-0.23339844,-1.7700194,-9.82666,-0.61035156
585,2025-03-14 17:00:08.490000,-0.6086426,0.6665039,-0.2434082,-0.5493164,-8.483887,-1.2207031
586,2025-03-14 17:00:08.500000,-0.6123047,0.671875,-0.25170898,0.24414061,-7.3242183,-2.2583008
587,2025-03-14 17:00:08.510000,-0.6196289,0.6784668,-0.25878906,0.24414061,-5.5541987,-3.4179685
588,2025-03-14 17:00:08.520000,-0.6203613,0.6748047,-0.26782227,0.18310545,-3.7231443,-3.234863
589,2025-03-14 17:00:08.530000,-0.6254883,0.68115234,-0.2590332,-0.122070305,-2.7465818,-2.7465818
590,2025-03-14 17:00:08.540000,-0.638916,0.6826172,-0.24072266,-0.30517578,-0.30517578,-3.0517576
591,2025-03-14 17:00:08.550000,-0.6569824,0.68652344,-0.26611328,0.42724606,2.380371,-2.6245115
592,2025-03-14 17:00:08.560000,-0.6772461,0.67456055,-0.27197266,0.30517578,4.1503906,-0.9155273
593,2025-03-14 17:00:08.570000,-0.6699219,0.64501953,-0.27978516,0.9155273,5.3710933,0.42724606
594,2025-03-14 17:00:08.580000,-0.6647949,0.6418457,-0.29882812,2.380371,5.8593745,0.122070305
595,2025-03-14 17:00:08.590000,-0.6616211,0.6489258,-0.30664062,2.6855466,6.469726,-0.24414061
596,2025-03-14 17:00:08.600000,-0.6484375,0.64575195,-0.3154297,2.868652,7.0800776,0.0
597,2025-03-14 17:00:08.610000,-0.64575195,0.6467285,-0.32421875,3.3569334,6.9580073,-0.18310545
598,2025-03-14 17:00:08.620000,-0.65112305,0.6594238,-0.32739258,4.0283203,6.774902,-1.2207031
599,2025-03-14 17:00:08.630000,-0.64282227,0.66625977,-0.32055664,4.760742,6.2255855,-2.2583008
600,2025-03-14 17:00:08.630000,-0.6213379,0.6726074,-0.31176758,5.0659175,5.249023,-3.0517576
601,2025-03-14 17:00:08.640000,-0.60498047,0.6809082,-0.3100586,4.5166016,4.1503906,-3.4790037
602,2025-03-14 17:00:08.650000,-0.6047363,0.6887207,-0.30395508,3.173828,3.234863,-3.7231443
603,2025-03-14 17:00:08.660000,-0.6113281,0.68310547,-0.29882812,1.8310546,1.586914,-3.1127927
604,2025-03-14 17:00:08.670000,-0.6230469,0.6723633,-0.30004883,1.159668,0.24414061,-3.1127927
605,2025-03-14 17:00:08.680000,-0.63061523,0.6669922,-0.30444336,0.9155273,0.3662109,-3.3569334
606,2025-03-14 17:00:08.690000,-0.6447754,0.657959,-0.30786133,0.61035156,0.42724606,-3.173828
607,2025-03-14 17:00:08.700000,-0.6574707,0.6530762,-0.31396484,0.9155273,-0.67138666,-3.2958982
608,2025-03-14 17:00:08.710000,-0.66748047,0.6567383,-0.32641602,0.7324218,-2.380371,-3.1127927
609,2025-03-14 17:00:08.720000,-0.67211914,0.66625977,-0.32983398,0.3662109,-3.4179685,-2.4414062
610,2025-03-14 17:00:08.730000,-0.6694336,0.6677246,-0.3305664,-0.3662109,-3.4179685,-1.2207031
611,2025-03-14 17:00:08.740000,-0.6706543,0.6633301,-0.32983398,-1.2817382,-3.4790037,-0.122070305
612,2025-03-14 17:00:08.750000,-0.6779785,0.6621094,-0.3239746,-1.6479491,-4.0893555,0.793457
613,2025-03-14 17:00:08.760000,-0.6665039,0.6689453,-0.32226562,-2.5634763,-4.5166016,1.4038085
614,2025-03-14 17:00:08.770000,-0.65234375,0.6682129,-0.3190918,-2.807617,-4.4555664,2.2583008
615,2025-03-14 17:00:08.780000,-0.6452637,0.66674805,-0.3125,-2.868652,-4.0893555,2.9907224
616,2025-03-14 17:00:08.790000,-0.64160156,0.66430664,-0.30981445,-3.173828,-3.5400388,3.173828
617,2025-03-14 17:00:08.800000,-0.63427734,0.65625,-0.30639648,-3.234863,-2.9296873,3.2958982
618,2025-03-14 17:00:08.810000,-0.63671875,0.65600586,-0.30371094,-2.868652,-2.4414062,2.9296873
619,2025-03-14 17:00:08.820000,-0.6467285,0.66064453,-0.3017578,-2.6245115,-2.0141602,2.5024414
620,2025-03-14 17:00:08.830000,-0.6418457,0.6557617,-0.29882812,-2.1362305,-1.9531249,2.6245115
621,2025-03-14 17:00:08.840000,-0.63427734,0.6599121,-0.29785156,-1.7089843,-2.1362305,1.8920897
622,2025-03-14 17:00:08.850000,-0.63671875,0.6682129,-0.30126953,-1.7089843,-2.2583008,0.793457
623,2025-03-14 17:00:08.860000,-0.63720703,0.67626953,-0.2956543,-1.586914,-2.5024414,0.42724606
624,2025-03-14 17:00:08.870000,-0.6298828,0.6711426,-0.28808594,-1.586914,-2.9907224,0.61035156
625,2025-03-14 17:00:08.880000,-0.62768555,0.671875,-0.29003906,-1.4648436,-3.8452146,0.48828122
626,2025-03-14 17:00:08.890000,-0.6281738,0.6750488,-0.28710938,-1.2817382,-4.8217773,0.24414061
627,2025-03-14 17:00:08.900000,-0.6196289,0.6730957,-0.28222656,-1.586914,-5.4321284,0.24414061
628,2025-03-14 17:00:08.910000,-0.6176758,0.6713867,-0.28173828,-1.4038085,-5.5541987,0.061035153
629,2025-03-14 17:00:08.920000,-0.61987305,0.67285156,-0.28466797,-1.0375977,-5.3710933,-0.30517578
630,2025-03-14 17:00:08.930000,-0.6269531,0.6694336,-0.28125,-0.67138666,-5.0659175,-0.30517578
631,2025-03-14 17:00:08.940000,-0.6323242,0.6665039,-0.27856445,-0.42724606,-4.5776367,-0.48828122
632,2025-03-14 17:00:08.950000,-0.638916,0.66796875,-0.2841797,-0.30517578,-4.1503906,-0.8544921
633,2025-03-14 17:00:08.960000,-0.64746094,0.6723633,-0.2902832,-0.122070305,-4.1503906,-0.97656244
634,2025-03-14 17:00:08.970000,-0.6425781,0.6743164,-0.296875,-0.122070305,-4.333496,-0.7324218
635,2025-03-14 17:00:08.980000,-0.6352539,0.6723633,-0.29882812,-0.122070305,-3.8452146,-0.3662109
636,2025-03-14 17:00:08.990000,-0.6411133,0.6677246,-0.29223633,-0.30517578,-2.9296873,-0.42724606
637,2025-03-14 17:00:09.000000,-0.65185547,0.6660156,-0.28881836,-0.42724606,-2.0141602,-0.61035156
638,2025-03-14 17:00:09.010000,-0.6586914,0.6665039,-0.29003906,-0.24414061,-2.319336,-0.67138666
639,2025-03-14 17:00:09.020000,-0.6557617,0.6660156,-0.29418945,-0.122070305,-3.3569334,-0.48828122
640,2025-03-14 17:00:09.030000,-0.640625,0.6582031,-0.28759766,-0.30517578,-3.967285,-0.24414061
641,2025-03-14 17:00:09.040000,-0.6357422,0.6569824,-0.29052734,-0.24414061,-3.967285,-0.61035156
642,2025-03-14 17:00:09.050000,-0.64404297,0.6672363,-0.2944336,-0.30517578,-3.4179685,-1.2817382
643,2025-03-14 17:00:09.060000,-0.64746094,0.67041016,-0.29174805,-0.67138666,-2.2583008,-1.3427733
644,2025-03-14 17:00:09.070000,-0.6452637,0.67041016,-0.2944336,-0.61035156,-1.5258788,-0.9155273
645,2025-03-14 17:00:09.080000,-0.6411133,0.67456055,-0.29125977,-0.42724606,-0.793457,-0.793457
646,2025-03-14 17:00:09.090000,-0.6381836,0.6784668,-0.29003906,-0.3662109,0.3662109,-0.8544921
647,2025-03-14 17:00:09.100000,-0.638916,0.6726074,-0.29003906,-0.48828122,1.2817382,-0.61035156
648,2025-03-14 17:00:09.110000,-0.6352539,0.6633301,-0.28149414,-0.42724606,1.4038085,-0.48828122
649,2025-03-14 17:00:09.120000,-0.6296387,0.6599121,-0.27661133,0.0,1.0986328,-1.0375977
650,2025-03-14 17:00:09.130000,-0.6291504,0.6652832,-0.28466797,0.42724606,1.0986328,-2.2583008
651,2025-03-14 17:00:09.140000,-0.6347656,0.66796875,-0.28027344,0.5493164,1.3427733,-2.807617
652,2025-03-14 17:00:09.150000,-0.64038086,0.66845703,-0.2758789,0.67138666,1.586914,-2.9907224
653,2025-03-14 17:00:09.160000,-0.63720703,0.66552734,-0.2705078,0.7324218,1.159668,-3.5400388
654,2025-03-14 17:00:09.170000,-0.6281738,0.66552734,-0.27001953,0.8544921,1.0986328,-3.7841794
655,2025-03-14 17:00:09.180000,-0.63305664,0.6652832,-0.27001953,1.159668,2.4414062,-3.9062498
656,2025-03-14 17:00:09.190000,-0.63916016,0.673584,-0.2705078,1.5258788,4.760742,-4.333496
657,2025-03-14 17:00:09.200000,-0.6418457,0.6772461,-0.2705078,1.7089843,6.408691,-4.1503906
658,2025-03-14 17:00:09.210000,-0.64941406,0.68188477,-0.2758789,2.0141602,7.4462886,-3.601074
659,2025-03-14 17:00:09.220000,-0.6542969,0.6796875,-0.2861328,1.9531249,7.8124995,-2.807617
660,2025-03-14 17:00:09.230000,-0.6567383,0.6669922,-0.29589844,1.5258788,7.0800776,-1.7700194
661,2025-03-14 17:00:09.240000,-0.6608887,0.6574707,-0.3022461,1.5258788,5.676269,-1.159668
662,2025-03-14 17:00:09.250000,-0.66137695,0.6567383,-0.30664062,1.586914,4.0893555,-1.159668
663,2025-03-14 17:00:09.260000,-0.6555176,0.65478516,-0.31469727,1.7089843,3.173828,-1.159668
664,2025-03-14 17:00:09.270000,-0.6550293,0.6542969,-0.31640625,1.8920897,2.7465818,-0.97656244
665,2025-03-14 17:00:09.280000,-0.6530762,0.6533203,-0.31274414,2.1972656,2.319336,-0.9155273
666,2025-03-14 17:00:09.290000,-0.64697266,0.65893555,-0.30078125,2.319336,1.586914,-1.159668
667,2025-03-14 17:00:09.300000,-0.63842773,0.6633301,-0.30200195,2.1972656,1.5258788,-1.586914
668,2025-03-14 17:00:09.310000,-0.6376953,0.66064453,-0.29956055,2.5024414,2.1972656,-1.6479491
669,2025-03-14 17:00:09.320000,-0.6359863,0.6635742,-0.28979492,3.1127927,3.0517576,-1.7700194
670,2025-03-14 17:00:09.330000,-0.6364746,0.66625977,-0.2849121,3.4790037,3.8452146,-2.0751953
671,2025-03-14 17:00:09.340000,-0.6386719,0.6689453,-0.2836914,3.4790037,4.5166016,-2.319336
672,2025-03-14 17:00:09.350000,-0.6357422,0.66308594,-0.2866211,3.4790037,5.4321284,-2.0751953
673,2025-03-14 17:00:09.360000,-0.63964844,0.6645508,-0.2939453,3.7841794,6.04248,-2.0751953
674,2025-03-14 17:00:09.370000,-0.64501953,0.66308594,-0.30126953,3.967285,6.2255855,-2.1972656
675,2025-03-14 17:00:09.380000,-0.63623047,0.66186523,-0.3137207,3.967285,6.2866206,-2.0751953
676,2025-03-14 17:00:09.390000,-0.6340332,0.66186523,-0.32666016,3.9062498,6.408691,-2.0141602
677,2025-03-14 17:00:09.400000,-0.6401367,0.66015625,-0.33081055,3.7231443,6.5917964,-2.0141602
678,2025-03-14 17:00:09.410000,-0.64208984,0.6555176,-0.3347168,3.7231443,6.5307612,-1.9531249
679,2025-03-14 17:00:09.420000,-0.64575195,0.6530762,-0.33911133,3.7841794,5.310058,-2.0751953
680,2025-03-14 17:00:09.430000,-0.64624023,0.657959,-0.33740234,3.8452146,3.6621091,-2.4414062
681,2025-03-14 17:00:09.440000,-0.638916,0.65722656,-0.33447266,3.4179685,2.5634763,-2.5024414
682,2025-03-14 17:00:09.450000,-0.63793945,0.6501465,-0.32739258,3.2958982,2.1362305,-2.5024414
683,2025-03-14 17:00:09.460000,-0.63720703,0.64575195,-0.32421875,3.4179685,2.0751953,-2.807617
684,2025-03-14 17:00:09.470000,-0.640625,0.65112305,-0.32080078,3.2958982,2.2583008,-3.1127927
685,2025-03-14 17:00:09.480000,-0.65063477,0.65478516,-0.3239746,2.868652,2.2583008,-3.234863
686,2025-03-14 17:00:09.490000,-0.6582031,0.6555176,-0.32910156,2.7465818,1.586914,-2.868652
687,2025-03-14 17:00:09.500000,-0.6530762,0.65283203,-0.33032227,2.319336,0.48828122,-2.2583008
688,2025-03-14 17:00:09.510000,-0.6501465,0.64868164,-0.33276367,2.0751953,0.0,-1.8310546
689,2025-03-14 17:00:09.520000,-0.6533203,0.6491699,-0.3388672,2.0751953,-0.061035153,-1.9531249
690,2025-03-14 17:00:09.530000,-0.6491699,0.65283203,-0.34375,1.8920897,0.061035153,-1.7089843
691,2025-03-14 17:00:09.540000,-0.6513672,0.6542969,-0.34228516,1.8920897,0.48828122,-1.159668
692,2025-03-14 17:00:09.550000,-0.6513672,0.65112305,-0.3408203,1.9531249,0.67138666,-0.8544921
693,2025-03-14 17:00:09.560000,-0.6501465,0.64697266,-0.33691406,2.0141602,0.122070305,-0.42724606
694,2025-03-14 17:00:09.570000,-0.6452637,0.64575195,-0.33374023,2.2583008,-0.30517578,-0.3662109
695,2025-03-14 17:00:09.580000,-0.642334,0.6464844,-0.33154297,2.5024414,-0.42724606,-0.67138666
696,2025-03-14 17:00:09.590000,-0.6401367,0.6489258,-0.3293457,2.319336,-0.061035153,-0.9155273
697,2025-03-14 17:00:09.600000,-0.6381836,0.6442871,-0.32861328,2.2583008,0.48828122,-1.0986328
698,2025-03-14 17:00:09.610000,-0.64453125,0.64404297,-0.3293457,2.6245115,0.30517578,-1.4038085
699,2025-03-14 17:00:09.620000,-0.6452637,0.6501465,-0.3383789,2.6855466,-0.30517578,-1.8920897
700,2025-03-14 17:00:09.630000,-0.6418457,0.65527344,-0.34301758,2.5024414,-0.97656244,-2.0751953
701,2025-03-14 17:00:09.640000,-0.6413574,0.657959,-0.34765625,2.0751953,-1.586914,-2.0751953
702,2025-03-14 17:00:09.650000,-0.6425781,0.65478516,-0.34570312,1.159668,-2.0141602,-1.586914
703,2025-03-14 17:00:09.660000,-0.64404297,0.65283203,-0.3425293,0.3662109,-2.4414062,-1.159668
704,2025-03-14 17:00:09.670000,-0.6496582,0.6574707,-0.34448242,-0.30517578,-3.234863,-1.3427733
705,2025-03-14 17:00:09.680000,-0.6530762,0.6657715,-0.34545898,-1.0986328,-4.1503906,-1.0986328
706,2025-03-14 17:00:09.690000,-0.6447754,0.6665039,-0.34570312,-1.8920897,-4.699707,-0.42724606
707,2025-03-14 17:00:09.700000,-0.6386719,0.66308594,-0.33569336,-2.9296873,-4.760742,-0.061035153
708,2025-03-14 17:00:09.710000,-0.6364746,0.6611328,-0.3244629,-3.7231443,-4.8217773,0.24414061
709,2025-03-14 17:00:09.720000,-0.6315918,0.66259766,-0.3203125,-4.1503906,-4.8217773,0.18310545
710,2025-03-14 17:00:09.730000,-0.6308594,0.6635742,-0.3154297,-4.3945312,-4.0893555,0.122070305
711,2025-03-14 17:00:09.740000,-0.6333008,0.6608887,-0.30981445,-4.5776367,-3.2958982,0.3662109
712,2025-03-14 17:00:09.750000,-0.63061523,0.6550293,-0.30688477,-4.699707,-2.807617,0.30517578
713,2025-03-14 17:00:09.760000,-0.6352539,0.6435547,-0.30517578,-4.4555664,-2.380371,0.0
714,2025-03-14 17:00:09.770000,-0.6467285,0.63549805,-0.30615234,-3.8452146,-1.8920897,-0.5493164
715,2025-03-14 17:00:09.780000,-0.6550293,0.6286621,-0.3083496,-3.1127927,-1.4648436,-0.97656244
716,2025-03-14 17:00:09.790000,-0.66186523,0.62524414,-0.3125,-2.1362305,-1.4648436,-1.0375977
717,2025-03-14 17:00:09.800000,-0.6677246,0.6303711,-0.31347656,-1.159668,-1.8920897,-1.2817382
718,2025-03-14 17:00:09.810000,-0.6687012,0.6425781,-0.3154297,-0.5493164,-1.8920897,-1.5258788
719,2025-03-14 17:00:09.820000,-0.6665039,0.6455078,-0.32006836,-0.122070305,-1.159668,-0.8544921
720,2025-03-14 17:00:09.830000,-0.6660156,0.64208984,-0.32104492,0.30517578,-0.9155273,-0.30517578
721,2025-03-14 17:00:09.840000,-0.6594238,0.6435547,-0.31958008,0.30517578,-1.5258788,0.0
722,2025-03-14 17:00:09.850000,-0.64501953,0.6484375,-0.31103516,0.122070305,-2.1362305,0.061035153
723,2025-03-14 17:00:09.860000,-0.6352539,0.65112305,-0.3112793,0.0,-2.1362305,-0.061035153
724,2025-03-14 17:00:09.870000,-0.6381836,0.65356445,-0.31835938,0.30517578,-2.2583008,-0.18310545
725,2025-03-14 17:00:09.879999,-0.64038086,0.65478516,-0.3166504,0.48828122,-2.1972656,-0.3662109
726,2025-03-14 17:00:09.889999,-0.63671875,0.65722656,-0.31201172,0.7324218,-2.0751953,-0.67138666
727,2025-03-14 17:00:09.899999,-0.6352539,0.6604004,-0.31176758,0.9155273,-1.7700194,-1.0375977
728,2025-03-14 17:00:09.909999,-0.64086914,0.6574707,-0.31054688,0.67138666,-0.8544921,-0.8544921
729,2025-03-14 17:00:09.919999,-0.6530762,0.65893555,-0.31420898,0.48828122,0.061035153,-0.7324218
730,2025-03-14 17:00:09.929999,-0.6645508,0.6586914,-0.31884766,0.7324218,-0.122070305,-0.48828122
731,2025-03-14 17:00:09.940000,-0.65966797,0.6508789,-0.31982422,0.48828122,-1.4038085,0.18310545
732,2025-03-14 17:00:09.950000,-0.64746094,0.6484375,-0.32226562,0.42724606,-1.8310546,0.30517578
733,2025-03-14 17:00:09.960000,-0.64160156,0.6467285,-0.3244629,0.18310545,-0.9155273,0.061035153
734,2025-03-14 17:00:09.970000,-0.6496582,0.6418457,-0.3178711,0.061035153,-0.24414061,0.122070305
735,2025-03-14 17:00:09.980000,-0.66137695,0.6418457,-0.3161621,0.5493164,-0.7324218,0.122070305
736,2025-03-14 17:00:09.990000,-0.65600586,0.64501953,-0.31445312,0.9155273,-1.5258788,-0.061035153
737,2025-03-14 17:00:10.000000,-0.65234375,0.64453125,-0.31201172,1.0375977,-1.3427733,0.061035153
738,2025-03-14 17:00:10.010000,-0.6467285,0.6472168,-0.31518555,1.2207031,-0.5493164,0.18310545
739,2025-03-14 17:00:10.020000,-0.6452637,0.6479492,-0.31933594,0.8544921,0.122070305,0.24414061
740,2025-03-14 17:00:10.030000,-0.65112305,0.65356445,-0.32763672,0.7324218,0.61035156,0.0
741,2025-03-14 17:00:10.040000,-0.6513672,0.6533203,-0.33203125,0.8544921,0.9155273,0.30517578
742,2025-03-14 17:00:10.050000,-0.6491699,0.6508789,-0.33422852,0.9155273,0.24414061,0.61035156
743,2025-03-14 17:00:10.060000,-0.6464844,0.6591797,-0.33544922,0.67138666,-0.793457,0.24414061
744,2025-03-14 17:00:10.070000,-0.63842773,0.66308594,-0.33862305,-0.061035153,-1.586914,0.3662109
745,2025-03-14 17:00:10.080000,-0.62939453,0.66552734,-0.328125,-0.793457,-1.8920897,0.61035156
746,2025-03-14 17:00:10.090000,-0.6225586,0.67456055,-0.31591797,-1.159668,-1.586914,0.061035153
747,2025-03-14 17:00:10.100000,-0.6203613,0.68188477,-0.3076172,-1.4648436,-0.97656244,-0.61035156
748,2025-03-14 17:00:10.110000,-0.6203613,0.6767578,-0.29467773,-2.0141602,-0.122070305,-0.3662109
749,2025-03-14 17:00:10.120000,-0.6159668,0.66503906,-0.29223633,-2.4414062,0.67138666,-0.3662109
750,2025-03-14 17:00:10.130000,-0.6164551,0.65405273,-0.28710938,-2.5634763,1.7700194,-1.0375977
751,2025-03-14 17:00:10.140000,-0.62524414,0.6594238,-0.2866211,-2.2583008,3.4790037,-1.9531249
752,2025-03-14 17:00:10.150000,-0.63623047,0.6760254,-0.2956543,-1.8920897,5.4321284,-2.5024414
753,2025-03-14 17:00:10.160000,-0.63549805,0.6755371,-0.3076172,-2.319336,6.774902,-1.7089843
754,2025-03-14 17:00:10.170000,-0.6442871,0.6555176,-0.31762695,-3.1127927,6.7138667,0.0
755,2025-03-14 17:00:10.180000,-0.66137695,0.6230469,-0.32861328,-3.6621091,5.981445,1.2207031
756,2025-03-14 17:00:10.190000,-0.6833496,0.60839844,-0.33642578,-3.9062498,4.8828125,1.8310546
757,2025-03-14 17:00:10.200000,-0.6906738,0.6279297,-0.33984375,-3.8452146,3.173828,1.7700194
758,2025-03-14 17:00:10.210000,-0.7036133,0.6484375,-0.36376953,-3.967285,0.793457,3.3569334
759,2025-03-14 17:00:10.220000,-0.7128906,0.6796875,-0.38598633,-4.0893555,-0.97656244,5.4321284
760,2025-03-14 17:00:10.230000,-0.6772461,0.71728516,-0.3996582,-4.272461,-1.7700194,6.835937
761,2025-03-14 17:00:10.240000,-0.6257324,0.7421875,-0.39526367,-5.8593745,-1.586914,8.361816
762,2025-03-14 17:00:10.250000,-0.5864258,0.7492676,-0.36889648,-8.483887,-0.793457,9.70459
763,2025-03-14 17:00:10.260000,-0.5620117,0.7392578,-0.3347168,-10.803222,-0.97656244,10.803222
764,2025-03-14 17:00:10.270000,-0.5488281,0.71777344,-0.30078125,-12.329101,-3.4790037,11.352538
765,2025-03-14 17:00:10.280000,-0.54248047,0.6999512,-0.2614746,-12.268065,-7.263183,10.0708
766,2025-03-14 17:00:10.290000,-0.53271484,0.68603516,-0.21948242,-11.169433,-9.70459,7.629394
767,2025-03-14 17:00:10.300000,-0.5253906,0.66308594,-0.18969727,-9.399414,-8.7890625,4.5166016
768,2025-03-14 17:00:10.310000,-0.53881836,0.6477051,-0.17089844,-6.774902,-4.9438477,1.2817382
769,2025-03-14 17:00:10.320000,-0.5620117,0.6357422,-0.16748047,-3.4790037,0.5493164,-1.8310546
770,2025-03-14 17:00:10.330000,-0.5957031,0.625,-0.18579102,-0.061035153,6.347656,-4.211426
771,2025-03-14 17:00:10.340000,-0.638916,0.63012695,-0.21313477,3.1127927,11.291503,-5.0659175
772,2025-03-14 17:00:10.350000,-0.67407227,0.63305664,-0.23876953,5.4931636,14.648437,-5.4321284
773,2025-03-14 17:00:10.360000,-0.69970703,0.6171875,-0.27929688,7.141113,16.296387,-4.8828125
774,2025-03-14 17:00:10.370000,-0.7224121,0.59399414,-0.3305664,8.544922,16.906738,-3.4790037
775,2025-03-14 17:00:10.380000,-0.7331543,0.59228516,-0.35986328,9.643555,16.906738,-2.9296873
776,2025-03-14 17:00:10.390000,-0.72753906,0.60302734,-0.39648438,10.31494,16.296387,-3.2958982
777,2025-03-14 17:00:10.400000,-0.7302246,0.6105957,-0.4428711,9.521484,14.160155,-3.1127927
778,2025-03-14 17:00:10.410000,-0.7211914,0.6074219,-0.46069336,7.7514644,10.681151,-2.1972656
779,2025-03-14 17:00:10.420000,-0.70336914,0.6135254,-0.4567871,6.408691,7.141113,-2.0141602
780,2025-03-14 17:00:10.430000,-0.6779785,0.63134766,-0.4506836,5.249023,3.967285,-2.5024414
781,2025-03-14 17:00:10.440000,-0.6557617,0.6604004,-0.4309082,4.211426,1.2207031,-1.8920897
782,2025-03-14 17:00:10.450000,-0.6359863,0.6796875,-0.4099121,2.868652,-0.48828122,-0.67138666
783,2025-03-14 17:00:10.460000,-0.6281738,0.6813965,-0.40820312,1.0375977,-1.3427733,1.2207031
784,2025-03-14 17:00:10.470000,-0.6274414,0.6828613,-0.3942871,-1.0375977,-2.319336,1.586914
785,2025-03-14 17:00:10.480000,-0.6003418,0.6813965,-0.35253906,-2.5024414,-4.211426,0.97656244
786,2025-03-14 17:00:10.490000,-0.5756836,0.6772461,-0.33032227,-3.0517576,-5.737304,0.24414061
787,2025-03-14 17:00:10.500000,-0.56518555,0.6672363,-0.32006836,-3.173828,-6.6528316,-0.3662109
788,2025-03-14 17:00:10.510000,-0.56811523,0.6525879,-0.3125,-3.601074,-6.896972,-1.0375977
789,2025-03-14 17:00:10.520000,-0.58813477,0.6394043,-0.31298828,-3.9062498,-6.103515,-2.1972656
790,2025-03-14 17:00:10.530000,-0.6176758,0.63256836,-0.32348633,-3.6621091,-4.333496,-3.3569334
791,2025-03-14 17:00:10.540000,-0.6394043,0.6359863,-0.3203125,-3.0517576,-2.1972656,-4.1503906
792,2025-03-14 17:00:10.550000,-0.64624023,0.64331055,-0.3232422,-1.9531249,-0.8544921,-5.1269526
793,2025-03-14 17:00:10.560000,-0.65185547,0.65600586,-0.328125,-1.3427733,-0.061035153,-5.187988
794,2025-03-14 17:00:10.570000,-0.66674805,0.65893555,-0.33740234,-1.5258788,0.8544921,-4.333496
795,2025-03-14 17:00:10.580000,-0.6772461,0.6513672,-0.3322754,-1.7700194,0.42724606,-3.234863
796,2025-03-14 17:00:10.590000,-0.68066406,0.6452637,-0.32006836,-1.586914,-1.7700194,-2.5024414
797,2025-03-14 17:00:10.600000,-0.6748047,0.65185547,-0.31958008,-1.2207031,-4.699707,-2.4414062
798,2025-03-14 17:00:10.610000,-0.66186523,0.66064453,-0.32202148,-1.4038085,-6.9580073,-2.0751953
799,2025-03-14 17:00:10.620000,-0.6586914,0.6538086,-0.3227539,-1.8920897,-7.629394,-1.0375977
800,2025-03-14 17:00:10.620000,-0.65844727,0.63134766,-0.32080078,-2.0141602,-6.835937,0.122070305
801,2025-03-14 17:00:10.629999,-0.65844727,0.607666,-0.31933594,-1.2207031,-5.4321284,0.61035156
802,2025-03-14 17:00:10.639999,-0.6608887,0.595459,-0.31884766,-0.18310545,-4.699707,-0.18310545
803,2025-03-14 17:00:10.649999,-0.6616211,0.6010742,-0.33007812,0.61035156,-4.760742,-1.159668
804,2025-03-14 17:00:10.659999,-0.66430664,0.6220703,-0.3515625,0.9155273,-4.1503906,-1.7700194
805,2025-03-14 17:00:10.669999,-0.6711426,0.6398926,-0.36499023,0.5493164,-2.5024414,-1.586914
806,2025-03-14 17:00:10.679999,-0.68310547,0.6477051,-0.36669922,-0.24414061,-1.4648436,-1.6479491
807,2025-03-14 17:00:10.689999,-0.6755371,0.6645508,-0.359375,-1.0375977,-0.793457,-2.319336
808,2025-03-14 17:00:10.699999,-0.65844727,0.67211914,-0.35424805,-2.4414062,-0.061035153,-1.9531249
809,2025-03-14 17:00:10.709999,-0.65405273,0.6660156,-0.34838867,-3.7231443,0.61035156,0.42724606
810,2025-03-14 17:00:10.719999,-0.6489258,0.6699219,-0.3425293,-3.7841794,-0.061035153,2.5024414
811,2025-03-14 17:00:10.730000,-0.63916016,0.6804199,-0.33374023,-3.5400388,-1.8920897,3.1127927
812,2025-03-14 17:00:10.740000,-0.6208496,0.689209,-0.31567383,-3.5400388,-3.5400388,2.807617
813,2025-03-14 17:00:10.750000,-0.5961914,0.6948242,-0.29956055,-3.1127927,-4.0283203,2.380371
814,2025-03-14 17:00:10.760000,-0.5739746,0.6940918,-0.28173828,-2.868652,-3.8452146,2.4414062
815,2025-03-14 17:00:10.770000,-0.58081055,0.68237305,-0.2619629,-2.9296873,-3.8452146,3.0517576
816,2025-03-14 17:00:10.780000,-0.61083984,0.6677246,-0.24804688,-2.4414062,-4.211426,3.1127927
817,2025-03-14 17:00:10.790000,-0.62524414,0.6557617,-0.24267578,-1.2817382,-4.8828125,2.4414062
818,2025-03-14 17:00:10.800000,-0.62524414,0.64501953,-0.24487305,0.30517578,-4.3945312,1.159668
819,2025-03-14 17:00:10.810000,-0.62890625,0.64160156,-0.24829102,2.0751953,-1.9531249,-0.18310545
820,2025-03-14 17:00:10.820000,-0.6398926,0.6347656,-0.25732422,3.4790037,1.8310546,-0.97656244
821,2025-03-14 17:00:10.830000,-0.6533203,0.6254883,-0.27075195,5.004883,5.1269526,-1.4038085
822,2025-03-14 17:00:10.840000,-0.66430664,0.6303711,-0.27685547,6.5917964,7.0800776,-2.0141602
823,2025-03-14 17:00:10.850000,-0.6555176,0.6516113,-0.29077148,7.568359,7.4462886,-2.7465818
824,2025-03-14 17:00:10.860000,-0.6437988,0.6660156,-0.32080078,8.056641,6.774902,-2.5634763
825,2025-03-14 17:00:10.870000,-0.6357422,0.673584,-0.34643555,7.8124995,5.4931636,-1.586914
826,2025-03-14 17:00:10.879999,-0.63012695,0.6772461,-0.3618164,6.5917964,3.9062498,-0.42724606
827,2025-03-14 17:00:10.889999,-0.6291504,0.67456055,-0.37719727,5.4321284,1.7089843,0.30517578
828,2025-03-14 17:00:10.899999,-0.6269531,0.6738281,-0.39282227,4.3945312,-0.8544921,0.3662109
829,2025-03-14 17:00:10.909999,-0.6245117,0.67871094,-0.40112305,2.6855466,-2.380371,0.122070305
830,2025-03-14 17:00:10.920000,-0.6218262,0.67871094,-0.40307617,0.8544921,-2.6855466,0.0
831,2025-03-14 17:00:10.930000,-0.62231445,0.6813965,-0.39111328,-0.9155273,-2.7465818,0.48828122
832,2025-03-14 17:00:10.940000,-0.6245117,0.68188477,-0.3659668,-2.380371,-2.7465818,1.4038085
833,2025-03-14 17:00:10.950000,-0.62646484,0.6867676,-0.3474121,-3.3569334,-2.380371,1.8920897
834,2025-03-14 17:00:10.960000,-0.62841797,0.68237305,-0.32421875,-3.8452146,-1.4038085,2.5024414
835,2025-03-14 17:00:10.970000,-0.62475586,0.6640625,-0.29663086,-3.3569334,0.061035153,2.9296873
836,2025-03-14 17:00:10.980000,-0.61694336,0.64941406,-0.27563477,-2.1362305,1.3427733,2.868652
837,2025-03-14 17:00:10.990000,-0.6154785,0.6435547,-0.2631836,-1.0375977,2.0141602,2.1362305
838,2025-03-14 17:00:11.000000,-0.6171875,0.6347656,-0.2565918,0.67138666,2.319336,1.3427733
839,2025-03-14 17:00:11.010000,-0.62475586,0.62524414,-0.26245117,2.6245115,2.4414062,0.61035156
840,2025-03-14 17:00:11.020000,-0.6298828,0.6245117,-0.27197266,4.8217773,2.6855466,-1.159668
841,2025-03-14 17:00:11.030000,-0.62841797,0.6401367,-0.28271484,6.7138667,3.234863,-3.3569334
842,2025-03-14 17:00:11.040000,-0.6357422,0.65771484,-0.30004883,7.690429,5.1269526,-5.1269526
843,2025-03-14 17:00:11.050000,-0.63964844,0.670166,-0.30932617,8.422852,7.3852534,-5.4931636
844,2025-03-14 17:00:11.060000,-0.64160156,0.6801758,-0.32641602,8.422852,8.056641,-4.699707
845,2025-03-14 17:00:11.070000,-0.6311035,0.6862793,-0.34521484,7.3852534,6.9580073,-3.2958982
846,2025-03-14 17:00:11.080000,-0.61621094,0.68359375,-0.3540039,5.737304,5.4931636,-1.4038085
847,2025-03-14 17:00:11.090000,-0.6208496,0.6647949,-0.36254883,4.699707,4.3945312,0.122070305
848,2025-03-14 17:00:11.100000,-0.62768555,0.64575195,-0.36987305,4.3945312,3.7841794,0.793457
849,2025-03-14 17:00:11.110000,-0.63256836,0.6359863,-0.37548828,4.0893555,3.1127927,0.8544921
850,2025-03-14 17:00:11.120000,-0.63427734,0.6296387,-0.39453125,3.601074,2.5024414,0.793457
851,2025-03-14 17:00:11.130000,-0.63720703,0.6303711,-0.4074707,2.9296873,2.319336,0.18310545
852,2025-03-14 17:00:11.140000,-0.6411133,0.6477051,-0.4099121,1.8920897,1.7089843,-1.0375977
853,2025-03-14 17:00:11.150000,-0.638916,0.6652832,-0.41210938,0.5493164,1.4648436,-1.5258788
854,2025-03-14 17:00:11.160000,-0.6425781,0.6640625,-0.40771484,-1.159668,1.159668,-0.18310545
855,2025-03-14 17:00:11.170000,-0.6345215,0.66381836,-0.39404297,-2.0751953,0.3662109,0.9155273
856,2025-03-14 17:00:11.180000,-0.62719727,0.6687012,-0.38110352,-2.868652,-0.793457,1.5258788
857,2025-03-14 17:00:11.190000,-0.6220703,0.65893555,-0.36547852,-3.5400388,-1.586914,2.1972656
858,2025-03-14 17:00:11.200000,-0.61035156,0.65649414,-0.34521484,-3.4790037,-1.8310546,1.8310546
859,2025-03-14 17:00:11.210000,-0.61083984,0.6503906,-0.32958984,-2.9907224,-1.3427733,1.3427733
860,2025-03-14 17:00:11.220000,-0.6218262,0.64331055,-0.3166504,-2.5024414,-0.97656244,0.793457
861,2025-03-14 17:00:11.230000,-0.6345215,0.64282227,-0.3125,-1.7700194,-2.319336,0.30517578
862,2025-03-14 17:00:11.240000,-0.63842773,0.6477051,-0.31298828,-1.159668,-4.211426,0.061035153
863,2025-03-14 17:00:11.250000,-0.6347656,0.65405273,-0.3239746,-0.7324218,-5.0659175,0.122070305
864,2025-03-14 17:00:11.260000,-0.6345215,0.6557617,-0.3322754,-0.61035156,-4.5166016,0.61035156
865,2025-03-14 17:00:11.270000,-0.640625,0.65722656,-0.33203125,-0.67138666,-3.3569334,0.793457
866,2025-03-14 17:00:11.280000,-0.6418457,0.6611328,-0.3322754,-0.793457,-2.380371,0.9155273
867,2025-03-14 17:00:11.290000,-0.6286621,0.6640625,-0.3305664,-1.2817382,-1.7700194,1.4038085
868,2025-03-14 17:00:11.300000,-0.6135254,0.6652832,-0.32641602,-1.7700194,-1.2207031,1.4648436
869,2025-03-14 17:00:11.310000,-0.60717773,0.6743164,-0.33007812,-2.0141602,0.0,0.7324218
870,2025-03-14 17:00:11.320000,-0.60791016,0.67529297,-0.32641602,-2.380371,1.7700194,0.67138666
871,2025-03-14 17:00:11.330000,-0.60253906,0.66674805,-0.31567383,-2.9296873,2.9296873,1.0375977
872,2025-03-14 17:00:11.340000,-0.5991211,0.6623535,-0.32104492,-3.4790037,3.173828,0.18310545
873,2025-03-14 17:00:11.350000,-0.59521484,0.66674805,-0.32104492,-3.9062498,3.601074,-0.7324218
874,2025-03-14 17:00:11.360000,-0.59277344,0.6591797,-0.3239746,-4.5166016,5.187988,-1.0986328
875,2025-03-14 17:00:11.370000,-0.607666,0.65283203,-0.34106445,-4.760742,7.263183,-1.586914
876,2025-03-14 17:00:11.380000,-0.6218262,0.64868164,-0.3491211,-5.4931636,8.483887,-1.4038085
877,2025-03-14 17:00:11.390000,-0.6333008,0.63964844,-0.34057617,-5.9204097,8.666992,-0.8544921
878,2025-03-14 17:00:11.400000,-0.6345215,0.64404297,-0.33422852,-5.0659175,8.972168,-1.159668
879,2025-03-14 17:00:11.410000,-0.63012695,0.65722656,-0.33984375,-4.699707,9.643555,-1.6479491
880,2025-03-14 17:00:11.420000,-0.6315918,0.66967773,-0.33862305,-4.9438477,10.19287,-0.67138666
881,2025-03-14 17:00:11.430000,-0.6359863,0.67041016,-0.3293457,-4.8828125,10.681151,0.97656244
882,2025-03-14 17:00:11.440000,-0.642334,0.6748047,-0.33203125,-4.5776367,10.437011,1.7089843
883,2025-03-14 17:00:11.450000,-0.62890625,0.6750488,-0.33447266,-4.638672,8.911133,2.1362305
884,2025-03-14 17:00:11.460000,-0.61157227,0.66674805,-0.3239746,-5.0659175,8.056641,2.868652
885,2025-03-14 17:00:11.470000,-0.60009766,0.66064453,-0.31860352,-4.5776367,8.605957,2.9296873
886,2025-03-14 17:00:11.480000,-0.59594727,0.65771484,-0.31640625,-3.7231443,8.728027,2.0141602
887,2025-03-14 17:00:11.490000,-0.5852051,0.6359863,-0.31201172,-3.0517576,8.850098,1.3427733
888,2025-03-14 17:00:11.500000,-0.5864258,0.60791016,-0.32910156,-1.2207031,9.216309,0.61035156
889,2025-03-14 17:00:11.510000,-0.5957031,0.5932617,-0.34375,0.97656244,10.559081,-1.2817382
890,2025-03-14 17:00:11.520000,-0.609375,0.595459,-0.3557129,2.4414062,11.96289,-3.5400388
891,2025-03-14 17:00:11.530000,-0.63500977,0.6074219,-0.37036133,3.1127927,13.366698,-5.004883
892,2025-03-14 17:00:11.540000,-0.670166,0.623291,-0.3984375,3.6621091,14.953612,-4.9438477
893,2025-03-14 17:00:11.550000,-0.6982422,0.63842773,-0.42114258,4.0283203,15.441894,-4.1503906
894,2025-03-14 17:00:11.560000,-0.7062988,0.6472168,-0.44628906,3.6621091,14.648437,-2.5634763
895,2025-03-14 17:00:11.570000,-0.70336914,0.6621094,-0.45996094,1.8920897,12.451171,-0.5493164
896,2025-03-14 17:00:11.580000,-0.68530273,0.6813965,-0.46020508,-0.67138666,8.605957,1.2817382
897,2025-03-14 17:00:11.590000,-0.6582031,0.7026367,-0.4580078,-3.5400388,4.699707,2.868652
898,2025-03-14 17:00:11.600000,-0.6262207,0.70288086,-0.43896484,-6.6528316,1.3427733,5.4321284
899,2025-03-14 17:00:11.610000,-0.5966797,0.6933594,-0.41088867,-9.338379,-1.7089843,7.568359
900,2025-03-14 17:00:11.620000,-0.57470703,0.6791992,-0.37524414,-10.803222,-3.967285,7.5073237
901,2025-03-14 17:00:11.630000,-0.5593262,0.6652832,-0.34838867,-11.1083975,-4.4555664,6.9580073
902,2025-03-14 17:00:11.640000,-0.56030273,0.6621094,-0.3371582,-10.559081,-4.333496,6.2866206
903,2025-03-14 17:00:11.650000,-0.5695801,0.6647949,-0.32128906,-9.887695,-4.699707,5.310058
904,2025-03-14 17:00:11.660000,-0.5773926,0.6713867,-0.30981445,-9.216309,-5.981445,4.211426
905,2025-03-14 17:00:11.670000,-0.5859375,0.6809082,-0.30664062,-8.605957,-7.690429,3.234863
906,2025-03-14 17:00:11.680000,-0.59155273,0.68310547,-0.31152344,-8.239746,-8.422852,3.234863
907,2025-03-14 17:00:11.690000,-0.6020508,0.6804199,-0.30737305,-8.178711,-7.7514644,3.5400388
908,2025-03-14 17:00:11.700000,-0.60839844,0.6845703,-0.2980957,-7.3852534,-6.5917964,3.7841794
909,2025-03-14 17:00:11.710000,-0.6064453,0.68725586,-0.30639648,-6.04248,-5.7983394,3.967285
910,2025-03-14 17:00:11.720000,-0.5991211,0.6838379,-0.3173828,-4.9438477,-5.0659175,4.4555664
911,2025-03-14 17:00:11.730000,-0.5913086,0.68603516,-0.31079102,-4.0283203,-3.9062498,4.5166016
912,2025-03-14 17:00:11.740000,-0.5942383,0.6958008,-0.30541992,-2.9907224,-1.9531249,4.211426
913,2025-03-14 17:00:11.750000,-0.58569336,0.7011719,-0.29711914,-2.0751953,-0.18310545,3.967285
914,2025-03-14 17:00:11.760000,-0.5703125,0.6965332,-0.28442383,-1.4648436,1.2207031,4.1503906
915,2025-03-14 17:00:11.770000,-0.5620117,0.6862793,-0.2836914,-0.7324218,3.0517576,3.967285
916,2025-03-14 17:00:11.780000,-0.5571289,0.6850586,-0.28173828,0.3662109,4.333496,2.9907224
917,2025-03-14 17:00:11.790000,-0.57055664,0.6850586,-0.28637695,1.3427733,4.638672,2.0141602
918,2025-03-14 17:00:11.800000,-0.5839844,0.68969727,-0.29736328,2.5634763,4.211426,0.97656244
919,2025-03-14 17:00:11.810000,-0.576416,0.6813965,-0.30200195,3.4179685,3.3569334,0.122070305
920,2025-03-14 17:00:11.820000,-0.57299805,0.66748047,-0.3034668,4.5166016,2.807617,-1.0986328
921,2025-03-14 17:00:11.830000,-0.5847168,0.6699219,-0.30908203,5.7983394,3.1127927,-2.7465818
922,2025-03-14 17:00:11.840000,-0.5878906,0.6699219,-0.32763672,6.9580073,3.4179685,-3.7841794
923,2025-03-14 17:00:11.850000,-0.57836914,0.6723633,-0.34765625,7.629394,3.234863,-4.5166016
924,2025-03-14 17:00:11.860000,-0.579834,0.6694336,-0.35913086,8.178711,4.4555664,-5.249023
925,2025-03-14 17:00:11.870000,-0.60253906,0.6665039,-0.37158203,8.7890625,6.408691,-5.8593745
926,2025-03-14 17:00:11.879999,-0.6225586,0.66845703,-0.36914062,9.277344,7.5073237,-6.408691
927,2025-03-14 17:00:11.889999,-0.6113281,0.6723633,-0.37060547,9.216309,7.568359,-6.408691
928,2025-03-14 17:00:11.899999,-0.6008301,0.6845703,-0.37841797,8.728027,7.8124995,-6.2866206
929,2025-03-14 17:00:11.909999,-0.5991211,0.69970703,-0.37890625,7.690429,8.483887,-5.7983394
930,2025-03-14 17:00:11.920000,-0.6040039,0.69921875,-0.37548828,6.6528316,8.483887,-4.272461
931,2025-03-14 17:00:11.930000,-0.6020508,0.6936035,-0.3642578,5.8593745,7.141113,-2.868652
932,2025-03-14 17:00:11.940000,-0.59033203,0.68237305,-0.36547852,4.699707,5.5541987,-1.4038085
933,2025-03-14 17:00:11.950000,-0.5888672,0.66308594,-0.35913086,4.1503906,5.004883,-0.3662109
934,2025-03-14 17:00:11.960000,-0.58496094,0.6503906,-0.3623047,4.1503906,5.310058,-0.61035156
935,2025-03-14 17:00:11.970000,-0.58691406,0.64331055,-0.37036133,4.5776367,5.615234,-1.7700194
936,2025-03-14 17:00:11.980000,-0.59350586,0.64404297,-0.37451172,4.8828125,6.2255855,-3.0517576
937,2025-03-14 17:00:11.990000,-0.60717773,0.638916,-0.38378906,5.004883,6.896972,-3.5400388
938,2025-03-14 17:00:12.000000,-0.6203613,0.6413574,-0.39013672,5.187988,7.8124995,-4.0893555
939,2025-03-14 17:00:12.010000,-0.6135254,0.6477051,-0.39086914,5.310058,10.009766,-5.1269526
940,2025-03-14 17:00:12.020000,-0.61083984,0.64282227,-0.3876953,5.249023,13.244628,-5.187988
941,2025-03-14 17:00:12.030000,-0.63549805,0.6281738,-0.39331055,4.8828125,15.747069,-3.967285
942,2025-03-14 17:00:12.040000,-0.6586914,0.6203613,-0.39916992,4.760742,15.930175,-2.5024414
943,2025-03-14 17:00:12.050000,-0.6542969,0.61694336,-0.40576172,4.4555664,14.343261,-1.4648436
944,2025-03-14 17:00:12.060000,-0.6352539,0.6245117,-0.41015625,4.0283203,12.268065,-0.3662109
945,2025-03-14 17:00:12.070000,-0.62646484,0.6394043,-0.42114258,2.7465818,10.0708,0.7324218
946,2025-03-14 17:00:12.080000,-0.61694336,0.6557617,-0.4333496,1.6479491,7.690429,1.0986328
947,2025-03-14 17:00:12.090000,-0.5961914,0.67163086,-0.43408203,0.793457,5.7983394,1.5258788
948,2025-03-14 17:00:12.100000,-0.57373047,0.673584,-0.43554688,-0.3662109,4.5166016,2.0141602
949,2025-03-14 17:00:12.110000,-0.5612793,0.68066406,-0.42578125,-1.5258788,3.4790037,1.6479491
950,2025-03-14 17:00:12.120000,-0.55126953,0.6850586,-0.4104004,-2.868652,2.6855466,1.2817382
951,2025-03-14 17:00:12.130000,-0.5473633,0.6791992,-0.40161133,-3.967285,2.319336,1.2207031
952,2025-03-14 17:00:12.140000,-0.55126953,0.67163086,-0.4013672,-4.0893555,2.5024414,0.9155273
953,2025-03-14 17:00:12.150000,-0.56152344,0.6657715,-0.38867188,-3.9062498,2.4414062,0.97656244
954,2025-03-14 17:00:12.160000,-0.576416,0.65771484,-0.37158203,-3.967285,2.1362305,1.0375977
955,2025-03-14 17:00:12.170000,-0.58081055,0.65527344,-0.36499023,-3.2958982,2.6855466,0.42724606
956,2025-03-14 17:00:12.180000,-0.578125,0.65478516,-0.36083984,-2.2583008,4.1503906,-0.24414061
957,2025-03-14 17:00:12.190000,-0.579834,0.6411133,-0.35766602,-1.7700194,6.5307612,0.061035153
958,2025-03-14 17:00:12.200000,-0.5908203,0.6352539,-0.359375,-0.8544921,8.7890625,0.122070305
959,2025-03-14 17:00:12.210000,-0.6032715,0.6376953,-0.3713379,0.42724606,9.643555,-0.18310545
960,2025-03-14 17:00:12.220000,-0.60791016,0.6489258,-0.38378906,1.4038085,9.399414,-0.3662109
961,2025-03-14 17:00:12.230000,-0.6015625,0.65966797,-0.38720703,1.5258788,8.972168,-0.122070305
962,2025-03-14 17:00:12.240000,-0.58496094,0.66625977,-0.40356445,1.159668,8.605957,0.48828122
963,2025-03-14 17:00:12.250000,-0.58203125,0.66845703,-0.41748047,0.67138666,7.0190425,1.0375977
964,2025-03-14 17:00:12.260000,-0.5812988,0.6665039,-0.4194336,0.3662109,5.1269526,1.159668
965,2025-03-14 17:00:12.270000,-0.5739746,0.6569824,-0.42700195,-0.30517578,2.7465818,1.2207031
966,2025-03-14 17:00:12.280000,-0.57958984,0.65600586,-0.42993164,-0.8544921,-0.18310545,0.24414061
967,2025-03-14 17:00:12.290000,-0.592041,0.6723633,-0.41723633,-1.0375977,-1.8920897,-1.3427733
968,2025-03-14 17:00:12.300000,-0.58935547,0.67871094,-0.40307617,-1.4648436,-2.868652,-1.159668
969,2025-03-14 17:00:12.310000,-0.5749512,0.6635742,-0.39916992,-2.0751953,-3.8452146,0.061035153
970,2025-03-14 17:00:12.320000,-0.57373047,0.6413574,-0.39379883,-2.2583008,-4.760742,-0.122070305
971,2025-03-14 17:00:12.330000,-0.5776367,0.638916,-0.38745117,-1.5258788,-4.1503906,-1.4648436
972,2025-03-14 17:00:12.340000,-0.57421875,0.6477051,-0.36743164,-0.97656244,-1.5258788,-2.6855466
973,2025-03-14 17:00:12.350000,-0.56469727,0.65966797,-0.35668945,0.0,2.319336,-3.0517576
974,2025-03-14 17:00:12.360000,-0.55810547,0.67407227,-0.35180664,1.5258788,5.5541987,-3.4179685
975,2025-03-14 17:00:12.370000,-0.5554199,0.68774414,-0.34887695,1.8920897,7.202148,-2.7465818
976,2025-03-14 17:00:12.380000,-0.5637207,0.69506836,-0.3491211,1.586914,7.3852534,-1.8920897
977,2025-03-14 17:00:12.390000,-0.55908203,0.70043945,-0.3564453,1.3427733,6.469726,-1.7089843
978,2025-03-14 17:00:12.400000,-0.54711914,0.69677734,-0.36621094,1.2207031,5.1269526,-1.2207031
979,2025-03-14 17:00:12.410000,-0.5395508,0.69262695,-0.36987305,1.0986328,4.638672,-0.42724606
980,2025-03-14 17:00:12.420000,-0.54345703,0.68725586,-0.36791992,1.2207031,6.1645503,-0.24414061
981,2025-03-14 17:00:12.430000,-0.55126953,0.6796875,-0.37426758,1.8920897,8.483887,-0.8544921
982,2025-03-14 17:00:12.440000,-0.56469727,0.6665039,-0.37939453,2.9907224,10.131835,-0.97656244
983,2025-03-14 17:00:12.450000,-0.5788574,0.64941406,-0.39233398,3.8452146,10.681151,-1.0986328
984,2025-03-14 17:00:12.460000,-0.5871582,0.6425781,-0.40966797,4.5776367,10.498046,-1.4038085
985,2025-03-14 17:00:12.470000,-0.59375,0.6425781,-0.42236328,5.5541987,10.559081,-1.7700194
986,2025-03-14 17:00:12.480000,-0.609375,0.6418457,-0.43041992,5.9204097,10.253905,-1.8920897
987,2025-03-14 17:00:12.490000,-0.6274414,0.6418457,-0.44189453,5.981445,8.605957,-1.159668
988,2025-03-14 17:00:12.500000,-0.6213379,0.63305664,-0.4494629,5.676269,6.408691,-0.42724606
989,2025-03-14 17:00:12.510000,-0.6064453,0.62841797,-0.46411133,4.638672,4.272461,-0.3662109
990,2025-03-14 17:00:12.520000,-0.61376953,0.6328125,-0.4802246,3.3569334,3.173828,-0.061035153
991,2025-03-14 17:00:12.530000,-0.6296387,0.6340332,-0.47705078,2.1972656,1.8920897,0.5493164
992,2025-03-14 17:00:12.540000,-0.61157227,0.626709,-0.47314453,1.0986328,-0.5493164,1.2207031
993,2025-03-14 17:00:12.550000,-0.5786133,0.6315918,-0.46606445,0.48828122,-3.0517576,1.0375977
994,2025-03-14 17:00:12.560000,-0.55810547,0.65063477,-0.4519043,0.18310545,-3.4179685,0.9155273
995,2025-03-14 17:00:12.570000,-0.57177734,0.6604004,-0.44018555,0.0,-2.9907224,1.5258788
996,2025-03-14 17:00:12.580000,-0.57958984,0.6616211,-0.42871094,-0.061035153,-4.0893555,1.6479491
997,2025-03-14 17:00:12.590000,-0.5593262,0.6665039,-0.41601562,-0.42724606,-5.7983394,0.793457
998,2025-03-14 17:00:12.600000,-0.546875,0.67089844,-0.4038086,-0.7324218,-6.469726,0.0
999,2025-03-14 17:00:12.610000,-0.5527344,0.6699219,-0.3869629,-0.5493164,-5.4931636,-0.42724606
